index,run,trial,onset,duration,town,pic,itemNum,resp,respRT
1,1,1,1.0025,50.7012,Town4,env4,1,Benedict Cumberbatch,34.0590
2,1,1,1.0025,50.7012,Town4,env4,2,?,16.0628
3,1,1,1.0025,50.7012,Town4,env4,3,?,0.5753
4,1,2,51.7446,107.9447,Town5,env5,1,Zooey Deschanel,106.1759
5,1,2,51.7446,107.9447,Town5,env5,2,?,1.1752
6,1,2,51.7446,107.9447,Town5,env5,3,?,0.5919
7,1,3,159.7301,64.3068,Town9,env9,1,Jim Parsons,50.2646
8,1,3,159.7301,64.3068,Town9,env9,2,Drill,1.2554
9,1,3,159.7301,64.3068,Town9,env9,3,Giraffe,12.7850
10,1,4,224.0782,9.4939,Town11,env11,1,Johnny Deep,6.3171
11,1,4,224.0782,9.4939,Town11,env11,2,Carrot,2.1118
12,1,4,224.0782,9.4939,Town11,env11,3,Hammer,1.0632
13,1,5,233.6130,43.7123,Town10,env10,1,Katy Perry,6.9903
14,1,5,233.6130,43.7123,Town10,env10,2,grapes,35.8822
15,1,5,233.6130,43.7123,Town10,env10,3,duck,0.8380
16,1,6,277.3663,18.3924,Town6,env6,1,Taylor Swift,11.2703
17,1,6,277.3663,18.3924,Town6,env6,2,Cow,2.0245
18,1,6,277.3663,18.3924,Town6,env6,3,Tape measure,5.0957
19,1,7,295.7993,15.8866,Town2,env2,1,Mark Zuckerberg,8.6382
20,1,7,295.7993,15.8866,Town2,env2,2,Cumcumber,3.2707
21,1,7,295.7993,15.8866,Town2,env2,3,Scissors,3.9759
22,1,8,311.7270,28.6364,Town1,env1,1,George Clooney,18.7713
23,1,8,311.7270,28.6364,Town1,env1,2,Zeebra,3.4951
24,1,8,311.7270,28.6364,Town1,env1,3,Letuce,6.3681
25,1,9,340.4044,9.6959,Town8,env8,1,Beyonce,6.1900
26,1,9,340.4044,9.6959,Town8,env8,2,Puppy,2.2320
27,1,9,340.4044,9.6959,Town8,env8,3,Eggs,1.2718
28,1,10,350.1417,25.1758,Town7,env7,1,Jim Parsons,12.1973
29,1,10,350.1417,25.1758,Town7,env7,2,Giraffe,11.6007
30,1,10,350.1417,25.1758,Town7,env7,3,Drill,1.3760
31,1,11,375.3596,44.5636,Town3,env3,1,Emma Watson,33.1148
32,1,11,375.3596,44.5636,Town3,env3,2,Bear,1.1032
33,1,11,375.3596,44.5636,Town3,env3,3,Screw driver,10.3438
34,1,12,419.9646,24.4983,Town12,env12,1,Natalie Portman,17.6659
35,1,12,419.9646,24.4983,Town12,env12,2,Alligator,5.9128
36,1,12,419.9646,24.4983,Town12,env12,3,Saw,0.9176
37,2,1,1.0024,13.5005,Town3,env3,1,Emma Stone,6.8974
38,2,1,1.0024,13.5005,Town3,env3,2,Screw driver,4.8077
39,2,1,1.0024,13.5005,Town3,env3,3,bear,1.7913
40,2,2,14.5457,29.1731,Town5,env5,1,Bendict Cumberbatch,8.1796
41,2,2,14.5457,29.1731,Town5,env5,2,Watermelon,4.4552
42,2,2,14.5457,29.1731,Town5,env5,3,Ostriag (sp?),16.5365
43,2,3,43.7607,16.0532,Town7,env7,1,Jim Parson,7.4844
44,2,3,43.7607,16.0532,Town7,env7,2,Drill,5.3522
45,2,3,43.7607,16.0532,Town7,env7,3,Giraffe,3.2148
46,2,4,59.8558,10.2390,Town10,env10,1,Kate Perry,3.9264
47,2,4,59.8558,10.2390,Town10,env10,2,Duck,1.0378
48,2,4,59.8558,10.2390,Town10,env10,3,Grapes,5.2730
49,2,5,70.1373,14.8122,Town6,env6,1,Taylor Swift,11.4920
50,2,5,70.1373,14.8122,Town6,env6,2,Cow,1.3747
51,2,5,70.1373,14.8122,Town6,env6,3,Tape Measure,1.9438
52,2,6,84.9917,16.5904,Town2,env2,1,Mark Zuckerberg,6.4852
53,2,6,84.9917,16.5904,Town2,env2,2,Cucumber,7.1608
54,2,6,84.9917,16.5904,Town2,env2,3,Scissors,2.9425
55,2,7,101.6253,15.3404,Town9,env9,1,Paul MacCarthy,8.3482
56,2,7,101.6253,15.3404,Town9,env9,2,Banana,3.9920
57,2,7,101.6253,15.3404,Town9,env9,3,Wrench,2.9983
58,2,8,117.0085,13.3259,Town4,env4,1,Natalie Portman,9.8295
59,2,8,117.0085,13.3259,Town4,env4,2,Saw,1.3513
60,2,8,117.0085,13.3259,Town4,env4,3,Alligator,2.1431
61,2,9,130.3766,7.0782,Town8,env8,1,Beyonce,2.6205
62,2,9,130.3766,7.0782,Town8,env8,2,Puppy,1.9918
63,2,9,130.3766,7.0782,Town8,env8,3,Lemons,2.4640
64,2,10,137.4975,16.6478,Town1,env1,1,George cloney,7.9192
65,2,10,137.4975,16.6478,Town1,env1,2,Zeebra,3.7995
66,2,10,137.4975,16.6478,Town1,env1,3,Letuce,4.9270
67,2,11,154.1874,22.1653,Town12,env12,1,Emma Stone,9.9966
68,2,11,154.1874,22.1653,Town12,env12,2,Saw,9.9364
69,2,11,154.1874,22.1653,Town12,env12,3,Alligator,2.2305
70,2,12,176.3950,13.3498,Town11,env11,1,Johnny Depth,10.0541
71,2,12,176.3950,13.3498,Town11,env11,2,Hammer,2.2463
72,2,12,176.3950,13.3498,Town11,env11,3,Carrot,1.0476
73,3,1,1.0018,14.5478,Town2,env2,1,Mark Zuckerberg,8.1934
74,3,1,1.0018,14.5478,Town2,env2,2,Cucumber,3.3592
75,3,1,1.0018,14.5478,Town2,env2,3,Scissors,2.9913
76,3,2,15.5932,14.3562,Town3,env3,1,Emma Stone,6.8436
77,3,2,15.5932,14.3562,Town3,env3,2,Screw driver,5.5427
78,3,2,15.5932,14.3562,Town3,env3,3,bear,1.9677
79,3,3,29.9936,13.5145,Town9,env9,1,Paul Mccarthy,8.5385
80,3,3,29.9936,13.5145,Town9,env9,2,Banana,3.4793
81,3,3,29.9936,13.5145,Town9,env9,3,Wrench,1.4949
82,3,4,43.5518,12.0054,Town12,env12,1,Zooey Deschanel,8.5401
83,3,4,43.5518,12.0054,Town12,env12,2,Stapler,2.1993
84,3,4,43.5518,12.0054,Town12,env12,3,Apple,1.2642
85,3,5,55.6009,8.6442,Town8,env8,1,Beyonce,2.9152
86,3,5,55.6009,8.6442,Town8,env8,2,Puppy,3.5272
87,3,5,55.6009,8.6442,Town8,env8,3,Lemons,2.1998
88,3,6,64.2886,10.2200,Town7,env7,1,Jim Parsons,4.6109
89,3,6,64.2886,10.2200,Town7,env7,2,Giraffe,4.0879
90,3,6,64.2886,10.2200,Town7,env7,3,Drill,1.5192
91,3,7,74.5532,8.7148,Town11,env11,1,Johnny Depth,5.7708
92,3,7,74.5532,8.7148,Town11,env11,2,Hammer,1.6158
93,3,7,74.5532,8.7148,Town11,env11,3,Carrot,1.3264
94,3,8,83.3115,14.2926,Town1,env1,1,George Clooney,8.3649
95,3,8,83.3115,14.2926,Town1,env1,2,Zeebra,3.4231
96,3,8,83.3115,14.2926,Town1,env1,3,Letuce,2.5026
97,3,9,97.6479,13.7244,Town4,env4,1,Natalie Portman,9.5088
98,3,9,97.6479,13.7244,Town4,env4,2,Alligator,3.1032
99,3,9,97.6479,13.7244,Town4,env4,3,Saw,1.1107
100,3,10,111.4158,14.9736,Town6,env6,1,Taylor Swift,10.1728
101,3,10,111.4158,14.9736,Town6,env6,2,Cow,1.2788
102,3,10,111.4158,14.9736,Town6,env6,3,Tape Measure,3.5200
103,3,11,126.4336,7.8918,Town10,env10,1,Katy Perry,5.1218
104,3,11,126.4336,7.8918,Town10,env10,2,Duck,1.1513
105,3,11,126.4336,7.8918,Town10,env10,3,Grapes,1.6170
106,3,12,134.3693,24.9869,Town5,env5,1,Benedict Cumberbatch,13.3621
107,3,12,134.3693,24.9869,Town5,env5,2,Flamingo,4.4553
108,3,12,134.3693,24.9869,Town5,env5,3,Watermelon,7.1677
109,4,1,1.0011,11.3960,Town1,env1,1,George Clooney,7.2407
110,4,1,1.0011,11.3960,Town1,env1,2,Zeebra,2.2870
111,4,1,1.0011,11.3960,Town1,env1,3,Letuce,1.8645
112,4,2,12.4437,8.2174,Town6,env6,1,Taylor Swift,4.4960
113,4,2,12.4437,8.2174,Town6,env6,2,Cow,1.3522
114,4,2,12.4437,8.2174,Town6,env6,3,Tape Measure,2.3674
115,4,3,20.7090,11.6959,Town9,env9,1,Paul MacCarthy,6.9196
116,4,3,20.7090,11.6959,Town9,env9,2,Banana,2.4782
117,4,3,20.7090,11.6959,Town9,env9,3,Wrench,2.2962
118,4,4,32.4515,13.5613,Town2,env2,1,Mark Zuckerberg,6.4329
119,4,4,32.4515,13.5613,Town2,env2,2,Cucumber,4.8635
120,4,4,32.4515,13.5613,Town2,env2,3,Scissors,2.2630
121,4,5,46.0583,9.8500,Town10,env10,1,Katy Perry,4.8337
122,4,5,46.0583,9.8500,Town10,env10,2,Grapes,3.7440
123,4,5,46.0583,9.8500,Town10,env10,3,Duck,1.2704
124,4,6,55.9541,18.3464,Town12,env12,1,Zooey Deschanel,7.0344
125,4,6,55.9541,18.3464,Town12,env12,2,Stapler,9.1434
126,4,6,55.9541,18.3464,Town12,env12,3,Apple,2.1667
127,4,7,74.3453,8.3709,Town11,env11,1,Johnny Depth,3.9391
128,4,7,74.3453,8.3709,Town11,env11,2,Hammer,3.3433
129,4,7,74.3453,8.3709,Town11,env11,3,Carrot,1.0867
130,4,8,82.7616,18.1867,Town5,env5,1,Benedict Cumberbatch,7.2984
131,4,8,82.7616,18.1867,Town5,env5,2,Watermelon,7.1361
132,4,8,82.7616,18.1867,Town5,env5,3,Flamingo,3.7502
133,4,9,100.9941,11.9139,Town7,env7,1,Jim Parsons,5.3627
134,4,9,100.9941,11.9139,Town7,env7,2,Giraffe,4.0702
135,4,9,100.9941,11.9139,Town7,env7,3,Drill,2.4792
136,4,10,112.9536,15.2670,Town4,env4,1,Natalie Portman,6.0988
137,4,10,112.9536,15.2670,Town4,env4,2,Saw,5.0389
138,4,10,112.9536,15.2670,Town4,env4,3,Alligator,4.1276
139,4,11,128.2669,5.1849,Town8,env8,1,Beyonce,2.5526
140,4,11,128.2669,5.1849,Town8,env8,2,Puppy,1.5038
141,4,11,128.2669,5.1849,Town8,env8,3,Lemons,1.1268
142,4,12,133.4972,12.0113,Town3,env3,1,Emma Stone,3.8663
143,4,12,133.4972,12.0113,Town3,env3,2,Screw driver,7.1681
144,4,12,133.4972,12.0113,Town3,env3,3,bear,0.9750
145,5,1,1.0010,20.4523,Town9,env9,1,Paul McCartney,10.9414
146,5,1,1.0010,20.4523,Town9,env9,2,Banana,7.1628
147,5,1,1.0010,20.4523,Town9,env9,3,Wrench,2.3441
148,5,2,21.5001,5.2969,Town8,env8,1,Beyonce,2.2954
149,5,2,21.5001,5.2969,Town8,env8,2,Puppy,1.7997
150,5,2,21.5001,5.2969,Town8,env8,3,Lemons,1.2000
151,5,3,26.8430,8.9297,Town7,env7,1,Jim Parsons,4.6570
152,5,3,26.8430,8.9297,Town7,env7,2,Drill,1.4873
153,5,3,26.8430,8.9297,Town7,env7,3,Giraffe,2.7837
154,5,4,35.8193,12.6328,Town10,env10,1,Katy Pery,7.6733
155,5,4,35.8193,12.6328,Town10,env10,2,Grapes,3.3668
156,5,4,35.8193,12.6328,Town10,env10,3,Duck,1.5909
157,5,5,48.4990,13.5385,Town2,env2,1,Mark Zuckerberg,6.0415
158,5,5,48.4990,13.5385,Town2,env2,2,Cucumber,5.7589
159,5,5,48.4990,13.5385,Town2,env2,3,Scissors,1.7363
160,5,6,62.0840,10.2331,Town1,env1,1,George Clooney,5.1600
161,5,6,62.0840,10.2331,Town1,env1,2,Letuce,3.5034
162,5,6,62.0840,10.2331,Town1,env1,3,Zebra,1.5677
163,5,7,72.3635,10.3133,Town11,env11,1,Johnny Depth,4.3197
164,5,7,72.3635,10.3133,Town11,env11,2,Hammer,4.7916
165,5,7,72.3635,10.3133,Town11,env11,3,Carrot,1.2001
166,5,8,82.7228,14.6010,Town3,env3,1,Emma Watson,4.6409
167,5,8,82.7228,14.6010,Town3,env3,2,Screw driver,8.2884
168,5,8,82.7228,14.6010,Town3,env3,3,bear,1.6700
169,5,9,97.3707,11.5137,Town4,env4,1,Natalie Portman,6.5611
170,5,9,97.3707,11.5137,Town4,env4,2,Saw,2.7124
171,5,9,97.3707,11.5137,Town4,env4,3,Alligator,2.2383
172,5,10,108.9309,16.7945,Town5,env5,1,Benedict Cumberbatch,6.1049
173,5,10,108.9309,16.7945,Town5,env5,2,Flamingo,5.5604
174,5,10,108.9309,16.7945,Town5,env5,3,Watermellon,5.1274
175,5,11,125.7730,13.9921,Town12,env12,1,Zooey Deschanel,9.8545
176,5,11,125.7730,13.9921,Town12,env12,2,Stapler,2.9765
177,5,11,125.7730,13.9921,Town12,env12,3,Apple,1.1592
178,5,12,139.8107,11.7784,Town6,env6,1,Taylor Swift,5.6087
179,5,12,139.8107,11.7784,Town6,env6,2,Cow,2.6722
180,5,12,139.8107,11.7784,Town6,env6,3,Tape measure,3.4957
