index,run,trial,onset,duration,town,pic,itemNum,resp,respRT
1,1,1,1.0014,88.8477,Town9,env9,1,stapler,71.4864
2,1,1,1.0014,88.8477,Town9,env9,2,zoey katy perry lookalike,11.4954
3,1,1,1.0014,88.8477,Town9,env9,3,dog,5.8619
4,1,2,89.8989,22.2020,Town3,env3,1,watermelon,12.2426
5,1,2,89.8989,22.2020,Town3,env3,2,drill,2.0232
6,1,2,89.8989,22.2020,Town3,env3,3,natalie portman,7.9344
7,1,3,112.1521,22.8105,Town5,env5,1,giraffe,10.6493
8,1,3,112.1521,22.8105,Town5,env5,2,measuring tape,5.6245
9,1,3,112.1521,22.8105,Town5,env5,3,katy perry,6.5349
10,1,4,135.0103,44.0414,Town7,env7,1,johnny depp,14.4157
11,1,4,135.0103,44.0414,Town7,env7,2,bear,24.0327
12,1,4,135.0103,44.0414,Town7,env7,3,grapes,5.5911
13,1,5,179.1000,11.9468,Town6,env6,1,?,4.0552
14,1,5,179.1000,11.9468,Town6,env6,2,?,4.1849
15,1,5,179.1000,11.9468,Town6,env6,3,johnny depp,3.7048
16,1,6,191.0963,12.7902,Town8,env8,1,?,7.0281
17,1,6,191.0963,12.7902,Town8,env8,2,banana,5.0652
18,1,6,191.0963,12.7902,Town8,env8,3,?,0.6950
19,1,7,203.9348,18.6261,Town12,env12,1,stapler,7.5937
20,1,7,203.9348,18.6261,Town12,env12,2,watermelon,6.6156
21,1,7,203.9348,18.6261,Town12,env12,3,dog,4.4151
22,1,8,222.6091,24.5600,Town10,env10,1,dog,6.7432
23,1,8,222.6091,24.5600,Town10,env10,2,watermelon,17.2559
24,1,8,222.6091,24.5600,Town10,env10,3,?,0.5593
25,1,9,247.2177,19.7810,Town2,env2,1,george clooney,10.7924
26,1,9,247.2177,19.7810,Town2,env2,2,banana,8.3546
27,1,9,247.2177,19.7810,Town2,env2,3,?,0.6323
28,1,10,267.0471,25.6151,Town1,env1,1,pat m.,15.4154
29,1,10,267.0471,25.6151,Town1,env1,2,?,9.5911
30,1,10,267.0471,25.6151,Town1,env1,3,?,0.6069
31,1,11,292.7104,24.7419,Town11,env11,1,?,23.2213
32,1,11,292.7104,24.7419,Town11,env11,2,?,0.6165
33,1,11,292.7104,24.7419,Town11,env11,3,?,0.9024
34,1,12,317.5020,15.2361,Town4,env4,1,tape measure,13.3954
35,1,12,317.5020,15.2361,Town4,env4,2,lettuce,1.2155
36,1,12,317.5020,15.2361,Town4,env4,3,?,0.6233
37,2,1,1.0019,7.6759,Town8,env8,1,beyonce,5.2096
38,2,1,1.0019,7.6759,Town8,env8,2,oranges,1.6707
39,2,1,1.0019,7.6759,Town8,env8,3,dog,0.7915
40,2,2,8.7227,20.9548,Town1,env1,1,clooney,17.4420
41,2,2,8.7227,20.9548,Town1,env1,2,lettuce,1.8630
42,2,2,8.7227,20.9548,Town1,env1,3,zebra,1.6480
43,2,3,29.7229,16.4032,Town7,env7,1,sheldon,3.6023
44,2,3,29.7229,16.4032,Town7,env7,2,hammer,12.0555
45,2,3,29.7229,16.4032,Town7,env7,3,?,0.7437
46,2,4,46.1692,10.4600,Town11,env11,1,johnny depp,4.4202
47,2,4,46.1692,10.4600,Town11,env11,2,carrot,0.9589
48,2,4,46.1692,10.4600,Town11,env11,3,hammer,5.0792
49,2,5,56.6729,7.5820,Town10,env10,1,katy perry,3.2203
50,2,5,56.6729,7.5820,Town10,env10,2,duck,0.7834
51,2,5,56.6729,7.5820,Town10,env10,3,watermelon,3.5764
52,2,6,64.2982,35.8251,Town4,env4,1,croc,7.6910
53,2,6,64.2982,35.8251,Town4,env4,2, saw,22.8601
54,2,6,64.2982,35.8251,Town4,env4,3,?,5.2722
55,2,7,100.1665,15.5960,Town2,env2,1,zuckerburg,9.8278
56,2,7,100.1665,15.5960,Town2,env2,2,banana,5.1917
57,2,7,100.1665,15.5960,Town2,env2,3,?,0.5748
58,2,8,115.8070,21.7762,Town6,env6,1,taylor swift,18.6012
59,2,8,115.8070,21.7762,Town6,env6,2,cow,0.9423
60,2,8,115.8070,21.7762,Town6,env6,3,measuring tape,2.2309
61,2,9,137.6279,11.7688,Town9,env9,1,wrench,6.3043
62,2,9,137.6279,11.7688,Town9,env9,2,cumberbach,3.5588
63,2,9,137.6279,11.7688,Town9,env9,3,?,1.9039
64,2,10,149.4443,33.4600,Town3,env3,1,bear,30.3236
65,2,10,149.4443,33.4600,Town3,env3,2,watson,1.1837
66,2,10,149.4443,33.4600,Town3,env3,3,grapes,1.9509
67,2,11,182.9475,15.1100,Town12,env12,1,stapler,3.5250
68,2,11,182.9475,15.1100,Town12,env12,2,zoey deshnazel,4.7911
69,2,11,182.9475,15.1100,Town12,env12,3,apple,6.7920
70,2,12,198.1012,7.9644,Town5,env5,1,taylor swift,4.6764
71,2,12,198.1012,7.9644,Town5,env5,2,measuring tape,2.6945
72,2,12,198.1012,7.9644,Town5,env5,3,cow,0.5916
73,3,1,1.0014,11.5446,Town2,env2,1,zuckerburg,3.9966
74,3,1,1.0014,11.5446,Town2,env2,2,zuchinni,3.1271
75,3,1,1.0014,11.5446,Town2,env2,3,scissors,4.4170
76,3,2,12.5939,8.9339,Town1,env1,1,clooney,3.5983
77,3,2,12.5939,8.9339,Town1,env1,2,zebra,4.1984
78,3,2,12.5939,8.9339,Town1,env1,3,lettuce,1.1355
79,3,3,21.5756,51.9098,Town4,env4,1,?,50.6531
80,3,3,21.5756,51.9098,Town4,env4,2,?,0.5606
81,3,3,21.5756,51.9098,Town4,env4,3,?,0.6941
82,3,4,73.5319,5.4667,Town12,env12,1,apple,2.6246
83,3,4,73.5319,5.4667,Town12,env12,2,stapler,1.3038
84,3,4,73.5319,5.4667,Town12,env12,3,katy perry,1.5366
85,3,5,79.0449,4.4650,Town8,env8,1,beyonce,3.0250
86,3,5,79.0449,4.4650,Town8,env8,2,orange,0.8473
87,3,5,79.0449,4.4650,Town8,env8,3,dog,0.5908
88,3,6,83.5561,20.1293,Town3,env3,1,bear,7.4161
89,3,6,83.5561,20.1293,Town3,env3,2,watson,1.3279
90,3,6,83.5561,20.1293,Town3,env3,3,grapes,11.3835
91,3,7,103.7322,8.7928,Town10,env10,1,duck,2.0893
92,3,7,103.7322,8.7928,Town10,env10,2,katy perry,2.4232
93,3,7,103.7322,8.7928,Town10,env10,3,watermelon,4.2783
94,3,8,112.5715,7.2507,Town11,env11,1,johnny depp,5.3534
95,3,8,112.5715,7.2507,Town11,env11,2,carrot,0.9360
96,3,8,112.5715,7.2507,Town11,env11,3,hammer,0.9594
97,3,9,119.8690,7.0816,Town7,env7,1,sheldon,2.6004
98,3,9,119.8690,7.0816,Town7,env7,2,flamingo,3.0786
99,3,9,119.8690,7.0816,Town7,env7,3,drill,1.4009
100,3,10,126.9969,19.0726,Town9,env9,1,paul mccartney,7.0160
101,3,10,126.9969,19.0726,Town9,env9,2,wrench,4.9513
102,3,10,126.9969,19.0726,Town9,env9,3,bananas,7.1036
103,3,11,146.1163,18.4889,Town5,env5,1,cumberbach,11.0645
104,3,11,146.1163,18.4889,Town5,env5,2,flamingo,3.9527
105,3,11,146.1163,18.4889,Town5,env5,3,watermelon,3.4696
106,3,12,164.6514,8.3297,Town6,env6,1,tswift,3.8251
107,3,12,164.6514,8.3297,Town6,env6,2,measuring tape,3.8393
108,3,12,164.6514,8.3297,Town6,env6,3,cow,0.6635
109,4,1,1.0012,4.7682,Town8,env8,1,beyonce,2.9246
110,4,1,1.0012,4.7682,Town8,env8,2,oranges,1.2319
111,4,1,1.0012,4.7682,Town8,env8,3,dog,0.6077
112,4,2,5.8102,9.6935,Town12,env12,1,katy perry,2.6780
113,4,2,5.8102,9.6935,Town12,env12,2,apple,6.0716
114,4,2,5.8102,9.6935,Town12,env12,3,stapler,0.9421
115,4,3,15.5447,10.3601,Town9,env9,1,wrence,2.5185
116,4,3,15.5447,10.3601,Town9,env9,2,paul mccartney,4.6638
117,4,3,15.5447,10.3601,Town9,env9,3,bananas,3.1759
118,4,4,25.9456,14.9761,Town7,env7,1,sheldon,2.5345
119,4,4,25.9456,14.9761,Town7,env7,2,drill,0.9199
120,4,4,25.9456,14.9761,Town7,env7,3,geraffe,11.5198
121,4,5,40.9624,10.2389,Town1,env1,1,clooney,3.4137
122,4,5,40.9624,10.2389,Town1,env1,2,lettuce,2.6234
123,4,5,40.9624,10.2389,Town1,env1,3,zebra,4.1999
124,4,6,51.2423,23.5035,Town5,env5,1,cumberbach,16.2550
125,4,6,51.2423,23.5035,Town5,env5,2,flamingo,3.8473
126,4,6,51.2423,23.5035,Town5,env5,3,watermelon,3.3993
127,4,7,74.7872,9.6624,Town11,env11,1,johnny depp,5.0940
128,4,7,74.7872,9.6624,Town11,env11,2,hammer,2.9998
129,4,7,74.7872,9.6624,Town11,env11,3,carrot,1.5668
130,4,8,84.4909,11.8706,Town3,env3,1,bear,3.2464
131,4,8,84.4909,11.8706,Town3,env3,2,watson,1.4715
132,4,8,84.4909,11.8706,Town3,env3,3,grapes,7.1506
133,4,9,96.4023,11.1024,Town2,env2,1,zuckerburg,3.2942
134,4,9,96.4023,11.1024,Town2,env2,2,cucumber,3.5673
135,4,9,96.4023,11.1024,Town2,env2,3,scissors,4.2393
136,4,10,107.5453,9.6077,Town6,env6,1,tswift,3.4958
137,4,10,107.5453,9.6077,Town6,env6,2,cow,1.2316
138,4,10,107.5453,9.6077,Town6,env6,3,measuring tape,4.8784
139,4,11,117.1943,4.7827,Town4,env4,1,portman,3.1992
140,4,11,117.1943,4.7827,Town4,env4,2,saw,0.7257
141,4,11,117.1943,4.7827,Town4,env4,3,croc,0.8560
142,4,12,122.0176,14.1607,Town10,env10,1,katy perry,4.3353
143,4,12,122.0176,14.1607,Town10,env10,2,duck,0.7124
144,4,12,122.0176,14.1607,Town10,env10,3,grapes,9.1108
145,5,1,1.0010,13.8355,Town9,env9,1,wrench,7.4737
146,5,1,1.0010,13.8355,Town9,env9,2,paul mccartney,4.9511
147,5,1,1.0010,13.8355,Town9,env9,3,bananas,1.4066
148,5,2,14.8849,10.3774,Town3,env3,1,emma watson,6.0237
149,5,2,14.8849,10.3774,Town3,env3,2,bear,0.6862
150,5,2,14.8849,10.3774,Town3,env3,3,screwdriver,3.6657
151,5,3,25.3097,10.8630,Town5,env5,1,benedict cumberbach,5.8467
152,5,3,25.3097,10.8630,Town5,env5,2,flamingo,3.3750
153,5,3,25.3097,10.8630,Town5,env5,3,watermelon,1.6395
154,5,4,36.2212,11.8066,Town12,env12,1,zoey dechanel,7.2067
155,5,4,36.2212,11.8066,Town12,env12,2,apple,3.5510
156,5,4,36.2212,11.8066,Town12,env12,3,stapler,1.0472
157,5,5,48.0769,9.2569,Town4,env4,1,croc,2.8547
158,5,5,48.0769,9.2569,Town4,env4,2,saw,1.3849
159,5,5,48.0769,9.2569,Town4,env4,3,portman,5.0152
160,5,6,57.3810,8.4551,Town6,env6,1,tswift,3.5903
161,5,6,57.3810,8.4551,Town6,env6,2,measuring tape,4.2800
162,5,6,57.3810,8.4551,Town6,env6,3,cow,0.5831
163,5,7,65.8833,4.6965,Town8,env8,1,beyonce,2.6640
164,5,7,65.8833,4.6965,Town8,env8,2,orange,1.3751
165,5,7,65.8833,4.6965,Town8,env8,3,dog,0.6556
166,5,8,70.6290,9.7192,Town2,env2,1,zuckerburg,3.1828
167,5,8,70.6290,9.7192,Town2,env2,2,cucumber,3.9122
168,5,8,70.6290,9.7192,Town2,env2,3,scissors,2.6224
169,5,9,80.3968,8.2555,Town10,env10,1,katy perry,2.8785
170,5,9,80.3968,8.2555,Town10,env10,2,duck,0.7516
171,5,9,80.3968,8.2555,Town10,env10,3,grapes,4.6237
172,5,10,88.6992,9.2091,Town11,env11,1,johnny depp,5.3283
173,5,10,88.6992,9.2091,Town11,env11,2,hammer,2.8724
174,5,10,88.6992,9.2091,Town11,env11,3,carrot,1.0067
175,5,11,97.9550,6.4092,Town1,env1,1,clooney,3.2746
176,5,11,97.9550,6.4092,Town1,env1,2,zebra,1.5409
177,5,11,97.9550,6.4092,Town1,env1,3,lettuce,1.5920
178,5,12,104.4135,11.6399,Town7,env7,1,sheldon,5.9267
179,5,12,104.4135,11.6399,Town7,env7,2,drill,3.0302
180,5,12,104.4135,11.6399,Town7,env7,3,giraffe,2.6811
