index,run,trial,onset,duration,cond,rep,resp,acc,respRT,ISIresp,ISIacc,ISIrespRT
1,1,1,12.0018,1.6001,virtualtown,0,NR,0,999.0000,NR,0,999.0000
2,1,2,13.6022,1.5986,virtualtown,0,NR,0,999.0000,0,1,0.0579
3,1,3,15.2010,1.6000,virtualtown,0,NR,0,999.0000,0,1,0.0217
4,1,4,16.8012,1.6001,virtualtown,1,1,1,0.5156,NR,0,999.0000
5,1,5,18.4015,1.5996,virtualtown,0,NR,0,999.0000,0,1,0.0483
6,1,6,20.0014,1.5987,virtualtown,1,NR,0,999.0000,1,1,0.2050
7,1,7,21.6002,1.6011,virtualtown,0,NR,0,999.0000,1,0,0.4296
8,1,8,23.2015,1.5989,virtualtown,1,NR,0,999.0000,1,1,0.7333
9,1,9,24.8006,1.6007,virtualtown,0,NR,0,999.0000,1,0,0.2928
10,1,10,26.4016,1.5985,virtualtown,0,NR,0,999.0000,NR,0,999.0000
11,1,11,28.0144,9.9865,rest,0,0,1,0.4302,NR,1,0.0000
12,1,12,38.0011,1.6002,tool,0,NR,0,999.0000,0,1,0.7585
13,1,13,39.6015,1.5995,tool,0,NR,0,999.0000,0,1,0.3182
14,1,14,41.2012,1.5993,tool,1,NR,0,999.0000,1,1,0.2073
15,1,15,42.8007,1.6005,tool,0,NR,0,999.0000,0,1,0.0060
16,1,16,44.4014,1.5995,tool,0,0,1,0.5354,NR,0,999.0000
17,1,17,46.0011,1.6001,tool,0,NR,0,999.0000,0,1,0.1127
18,1,18,47.6014,1.5996,tool,1,NR,0,999.0000,1,1,0.0525
19,1,19,49.2013,1.5999,tool,0,NR,0,999.0000,0,1,0.3588
20,1,20,50.8013,1.5998,tool,1,NR,0,999.0000,1,1,0.0096
21,1,21,52.4014,1.5990,tool,0,0,1,0.5736,NR,0,999.0000
22,1,22,54.0105,9.9896,rest,0,NR,1,999.0000,NR,1,0.0000
23,1,23,64.0003,1.6003,animal,0,NR,0,999.0000,0,1,0.0914
24,1,24,65.6008,1.5996,animal,0,NR,0,999.0000,0,1,0.0282
25,1,25,67.2006,1.5999,animal,0,0,1,0.5036,NR,0,999.0000
26,1,26,68.8008,1.5995,animal,1,1,1,0.4544,NR,0,999.0000
27,1,27,70.4005,1.6007,animal,0,NR,0,999.0000,NR,0,999.0000
28,1,28,72.0014,1.5996,animal,1,NR,0,999.0000,1,1,0.1967
29,1,29,73.6012,1.5991,animal,0,0,1,0.5467,NR,0,999.0000
30,1,30,75.2005,1.6008,animal,0,NR,0,999.0000,0,1,0.0664
31,1,31,76.8014,1.5998,animal,0,0,1,0.5670,NR,0,999.0000
32,1,32,78.4014,1.5987,animal,1,NR,0,999.0000,1,1,0.0704
33,1,33,80.0139,9.9871,rest,0,NR,1,999.0000,NR,1,0.0000
34,1,34,90.0012,1.6000,fruitveg,0,NR,0,999.0000,0,1,0.1438
35,1,35,91.6014,1.5999,fruitveg,0,NR,0,999.0000,0,1,0.1420
36,1,36,93.2016,1.5999,fruitveg,1,1,1,0.5515,NR,0,999.0000
37,1,37,94.8017,1.5994,fruitveg,0,0,1,0.5606,NR,0,999.0000
38,1,38,96.4012,1.5992,fruitveg,0,0,1,0.5088,NR,0,999.0000
39,1,39,98.0006,1.5996,fruitveg,0,0,1,0.5609,NR,0,999.0000
40,1,40,99.6004,1.5997,fruitveg,0,0,1,0.4882,NR,0,999.0000
41,1,41,101.2003,1.6010,fruitveg,1,1,1,0.4977,NR,0,999.0000
42,1,42,102.8016,1.5988,fruitveg,0,NR,0,999.0000,0,1,0.0213
43,1,43,104.4006,1.6002,fruitveg,1,1,1,0.5707,NR,0,999.0000
44,1,44,106.0117,9.9890,rest,0,NR,1,999.0000,NR,1,0.0000
45,1,45,116.0009,1.5995,animal,0,0,1,0.4525,NR,0,999.0000
46,1,46,117.6006,1.6004,animal,0,0,1,0.4337,NR,0,999.0000
47,1,47,119.2012,1.5996,animal,1,1,1,0.3588,NR,0,999.0000
48,1,48,120.8010,1.5996,animal,0,0,1,0.5367,NR,0,999.0000
49,1,49,122.4008,1.6004,animal,1,0,0,0.4710,NR,0,999.0000
50,1,50,124.0014,1.5995,animal,0,NR,0,999.0000,0,1,0.0183
51,1,51,125.6010,1.5992,animal,0,NR,0,999.0000,0,1,0.5423
52,1,52,127.2004,1.6006,animal,0,NR,0,999.0000,0,1,0.2055
53,1,53,128.8012,1.6001,animal,0,NR,0,999.0000,0,1,0.0068
54,1,54,130.4015,1.5999,animal,1,1,1,0.5683,NR,0,999.0000
55,1,55,132.0137,9.9871,rest,0,NR,1,999.0000,NR,1,0.0000
56,1,56,142.0011,1.6002,face,0,NR,0,999.0000,0,1,0.2977
57,1,57,143.6015,1.5987,face,0,NR,0,999.0000,0,1,0.2993
58,1,58,145.2004,1.6009,face,1,NR,0,999.0000,1,1,0.0283
59,1,59,146.8015,1.5995,face,0,NR,0,999.0000,0,1,0.0481
60,1,60,148.4012,1.5993,face,1,NR,0,999.0000,1,1,0.1166
61,1,61,150.0008,1.5998,face,0,0,1,0.5532,NR,0,999.0000
62,1,62,151.6008,1.6002,face,0,0,1,0.5889,NR,0,999.0000
63,1,63,153.2012,1.5996,face,0,NR,0,999.0000,0,1,0.2143
64,1,64,154.8010,1.5997,face,0,NR,0,999.0000,0,1,0.2144
65,1,65,156.4009,1.5991,face,1,NR,0,999.0000,1,1,0.0581
66,1,66,158.0128,9.9887,rest,0,NR,1,999.0000,NR,1,0.0000
67,1,67,168.0017,1.5991,animal,0,NR,0,999.0000,0,1,0.0970
68,1,68,169.6009,1.6004,animal,0,0,1,0.5812,NR,0,999.0000
69,1,69,171.2015,1.5997,animal,0,0,1,0.5123,NR,0,999.0000
70,1,70,172.8015,1.5996,animal,1,1,1,0.4257,NR,0,999.0000
71,1,71,174.4012,1.6001,animal,0,0,1,0.3755,NR,0,999.0000
72,1,72,176.0015,1.5988,animal,1,NR,0,999.0000,1,1,0.0337
73,1,73,177.6005,1.5998,animal,0,0,1,0.5401,NR,0,999.0000
74,1,74,179.2006,1.5998,animal,0,0,1,0.5843,NR,0,999.0000
75,1,75,180.8006,1.6003,animal,0,0,1,0.4326,NR,0,999.0000
76,1,76,182.4011,1.6002,animal,1,1,1,0.3603,NR,0,999.0000
77,1,77,184.0134,9.9873,rest,0,NR,1,999.0000,NR,1,0.0000
78,1,78,194.0010,1.5993,virtualtown,0,NR,0,999.0000,0,1,0.2209
79,1,79,195.6005,1.5999,virtualtown,0,0,1,0.5667,NR,0,999.0000
80,1,80,197.2006,1.6005,virtualtown,1,NR,0,999.0000,1,1,0.5711
81,1,81,198.8013,1.5997,virtualtown,0,0,1,0.4379,NR,0,999.0000
82,1,82,200.4012,1.5990,virtualtown,0,NR,0,999.0000,0,1,0.1021
83,1,83,202.0004,1.6000,virtualtown,1,NR,0,999.0000,1,1,0.0509
84,1,84,203.6007,1.5996,virtualtown,0,0,1,0.5108,NR,0,999.0000
85,1,85,205.2005,1.6001,virtualtown,0,NR,0,999.0000,NR,0,999.0000
86,1,86,206.8008,1.5995,virtualtown,0,0,1,0.4813,NR,0,999.0000
87,1,87,208.4005,1.6006,virtualtown,1,1,1,0.4795,NR,0,999.0000
88,1,88,210.0139,9.9865,rest,0,NR,1,999.0000,NR,1,0.0000
89,1,89,220.0006,1.6005,fruitveg,0,NR,0,999.0000,0,1,0.1200
90,1,90,221.6014,1.6001,fruitveg,0,NR,0,999.0000,NR,0,999.0000
91,1,91,223.2016,1.5988,fruitveg,1,1,1,0.5205,NR,0,999.0000
92,1,92,224.8007,1.5997,fruitveg,0,NR,0,999.0000,1,0,0.1662
93,1,93,226.4005,1.5997,fruitveg,1,1,1,0.5331,NR,0,999.0000
94,1,94,228.0005,1.5999,fruitveg,0,NR,0,999.0000,0,1,0.0242
95,1,95,229.6006,1.6002,fruitveg,0,0,1,0.4654,NR,0,999.0000
96,1,96,231.2010,1.5999,fruitveg,0,0,1,0.5551,NR,0,999.0000
97,1,97,232.8011,1.5996,fruitveg,0,0,1,0.4821,NR,0,999.0000
98,1,98,234.4008,1.5998,fruitveg,1,NR,0,999.0000,NR,0,999.0000
99,1,99,236.0146,9.9864,rest,0,NR,1,999.0000,NR,1,0.0000
100,1,100,246.0013,1.5997,face,0,NR,0,999.0000,1,0,0.5732
101,1,101,247.6012,1.5999,face,0,0,1,0.5594,NR,0,999.0000
102,1,102,249.2013,1.6001,face,0,NR,0,999.0000,0,1,0.0173
103,1,103,250.8017,1.5997,face,1,NR,0,999.0000,1,1,0.0661
104,1,104,252.4016,1.5992,face,0,0,1,0.5372,NR,0,999.0000
105,1,105,254.0010,1.6004,face,1,NR,0,999.0000,1,1,0.0214
106,1,106,255.6016,1.5992,face,0,0,1,0.5612,NR,0,999.0000
107,1,107,257.2010,1.6001,face,0,NR,0,999.0000,0,1,0.2572
108,1,108,258.8014,1.5994,face,1,NR,0,999.0000,1,1,0.0733
109,1,109,260.4010,1.6003,face,0,NR,0,999.0000,0,1,0.0192
110,1,110,262.0152,9.9852,rest,0,NR,1,999.0000,NR,1,0.0000
111,1,111,272.0006,1.6006,tool,0,NR,0,999.0000,0,1,0.8049
112,1,112,273.6015,1.5990,tool,0,NR,0,999.0000,0,1,0.2024
113,1,113,275.2007,1.5995,tool,1,NR,0,999.0000,1,1,0.4377
114,1,114,276.8003,1.6003,tool,0,NR,0,999.0000,0,1,0.0369
115,1,115,278.4009,1.6004,tool,0,NR,0,999.0000,0,1,0.2327
116,1,116,280.0015,1.5994,tool,1,NR,0,999.0000,1,1,0.0067
117,1,117,281.6012,1.5993,tool,0,NR,0,999.0000,0,1,0.1565
118,1,118,283.2006,1.6000,tool,1,1,1,0.5760,NR,0,999.0000
119,1,119,284.8008,1.5995,tool,0,NR,0,999.0000,0,1,0.3716
120,1,120,286.4005,1.6000,tool,0,NR,0,999.0000,0,1,0.0186
121,1,121,288.0158,9.9855,rest,0,NR,1,999.0000,NR,1,0.0000
122,1,122,298.0015,1.5987,face,0,NR,0,999.0000,0,1,0.2034
123,1,123,299.6005,1.6003,face,0,0,1,0.5394,NR,0,999.0000
124,1,124,301.2009,1.5993,face,1,NR,0,999.0000,NR,0,999.0000
125,1,125,302.8004,1.6006,face,0,0,1,0.5639,NR,0,999.0000
126,1,126,304.4012,1.5994,face,1,NR,0,999.0000,1,1,0.1379
127,1,127,306.0008,1.5999,face,0,0,1,0.4805,NR,0,999.0000
128,1,128,307.6009,1.6003,face,0,NR,0,999.0000,0,1,0.0130
129,1,129,309.2014,1.6000,face,1,1,1,0.5228,NR,0,999.0000
130,1,130,310.8015,1.5993,face,0,0,1,0.4996,NR,0,999.0000
131,1,131,312.4011,1.5996,face,0,NR,0,999.0000,0,1,0.0172
132,1,132,314.0165,9.9840,rest,0,NR,1,999.0000,NR,1,0.0000
133,1,133,324.0007,1.6001,fruitveg,0,NR,0,999.0000,0,1,0.0796
134,1,134,325.6010,1.5992,fruitveg,0,0,1,0.4081,NR,0,999.0000
135,1,135,327.2004,1.6001,fruitveg,0,0,1,0.3841,NR,0,999.0000
136,1,136,328.8007,1.5995,fruitveg,0,0,1,0.3698,NR,0,999.0000
137,1,137,330.4003,1.6003,fruitveg,1,1,1,0.4029,NR,0,999.0000
138,1,138,332.0008,1.6004,fruitveg,0,0,1,0.3651,NR,0,999.0000
139,1,139,333.6013,1.5993,fruitveg,1,1,1,0.4431,NR,0,999.0000
140,1,140,335.2008,1.6004,fruitveg,0,0,1,0.4090,NR,0,999.0000
141,1,141,336.8014,1.6001,fruitveg,0,0,1,0.4312,NR,0,999.0000
142,1,142,338.4017,1.5995,fruitveg,1,1,1,0.3269,NR,0,999.0000
143,1,143,340.0170,9.9834,rest,0,NR,1,999.0000,NR,1,0.0000
144,1,144,350.0007,1.6006,virtualtown,0,NR,0,999.0000,0,1,0.4637
145,1,145,351.6015,1.5993,virtualtown,0,NR,0,999.0000,0,1,0.0444
146,1,146,353.2010,1.5999,virtualtown,0,0,1,0.5030,NR,0,999.0000
147,1,147,354.8011,1.6002,virtualtown,0,0,1,0.4680,NR,0,999.0000
148,1,148,356.4014,1.5997,virtualtown,1,1,1,0.3700,NR,0,999.0000
149,1,149,358.0013,1.5990,virtualtown,0,0,1,0.5072,NR,0,999.0000
150,1,150,359.6005,1.6006,virtualtown,1,NR,0,999.0000,NR,0,999.0000
151,1,151,361.2013,1.5990,virtualtown,0,NR,0,999.0000,0,1,0.0665
152,1,152,362.8006,1.6008,virtualtown,1,1,1,0.5171,NR,0,999.0000
153,1,153,364.4016,1.5997,virtualtown,0,NR,0,999.0000,0,1,0.0088
154,1,154,366.0177,9.9828,rest,0,NR,1,999.0000,NR,1,0.0000
155,1,155,376.0007,1.5999,tool,0,NR,0,999.0000,0,1,0.3174
156,1,156,377.6008,1.5998,tool,0,0,1,0.5381,NR,0,999.0000
157,1,157,379.2008,1.5996,tool,0,0,1,0.4112,NR,0,999.0000
158,1,158,380.8006,1.6004,tool,1,NR,0,999.0000,1,1,0.0198
159,1,159,382.4012,1.5998,tool,0,0,1,0.4134,NR,0,999.0000
160,1,160,384.0012,1.6002,tool,1,NR,0,999.0000,1,1,0.1240
161,1,161,385.6016,1.5988,tool,0,0,1,0.4562,NR,0,999.0000
162,1,162,387.2005,1.6006,tool,1,0,0,0.3941,NR,0,999.0000
163,1,163,388.8013,1.5994,tool,0,NR,0,999.0000,NR,0,999.0000
164,1,164,390.4009,1.5997,tool,0,0,1,0.5584,NR,0,999.0000
165,1,165,392.0183,9.9822,rest,0,NR,1,999.0000,NR,1,0.0000
166,1,166,402.0008,1.5994,tool,0,NR,0,999.0000,0,1,0.1999
167,1,167,403.6004,1.6001,tool,0,0,1,0.5252,NR,0,999.0000
168,1,168,405.2007,1.6007,tool,1,1,1,0.4150,NR,0,999.0000
169,1,169,406.8016,1.5998,tool,0,0,1,0.4296,NR,0,999.0000
170,1,170,408.4016,1.5991,tool,1,1,1,0.4661,NR,0,999.0000
171,1,171,410.0008,1.5998,tool,0,0,1,0.4608,NR,0,999.0000
172,1,172,411.6008,1.5995,tool,0,NR,0,999.0000,0,1,0.2307
173,1,173,413.2005,1.5995,tool,1,1,1,0.3946,NR,0,999.0000
174,1,174,414.8002,1.6010,tool,0,0,1,0.4820,NR,0,999.0000
175,1,175,416.4015,1.5992,tool,0,NR,0,999.0000,0,1,0.2605
176,1,176,418.0190,9.9822,rest,0,NR,1,999.0000,NR,1,0.0000
177,1,177,428.0014,1.5995,virtualtown,0,NR,0,999.0000,0,1,0.2093
178,1,178,429.6012,1.5993,virtualtown,0,0,1,0.5454,NR,0,999.0000
179,1,179,431.2007,1.6004,virtualtown,1,NR,0,999.0000,NR,0,999.0000
180,1,180,432.8013,1.5989,virtualtown,0,0,1,0.5807,NR,0,999.0000
181,1,181,434.4004,1.5999,virtualtown,1,NR,0,999.0000,1,1,0.2750
182,1,182,436.0005,1.6008,virtualtown,0,NR,0,999.0000,0,1,0.3652
183,1,183,437.6015,1.5990,virtualtown,0,NR,0,999.0000,0,1,0.3997
184,1,184,439.2007,1.5994,virtualtown,0,NR,0,999.0000,0,1,0.2893
185,1,185,440.8003,1.5997,virtualtown,1,NR,0,999.0000,1,1,0.0358
186,1,186,442.4003,1.6007,virtualtown,0,0,1,0.5831,NR,0,999.0000
187,1,187,444.0122,9.9883,rest,0,NR,1,999.0000,NR,1,0.0000
188,1,188,454.0007,1.6002,fruitveg,0,NR,0,999.0000,0,1,0.5874
189,1,189,455.6011,1.5993,fruitveg,0,NR,0,999.0000,0,1,0.0218
190,1,190,457.2006,1.6007,fruitveg,0,0,1,0.3912,NR,0,999.0000
191,1,191,458.8015,1.5994,fruitveg,1,1,1,0.3428,NR,0,999.0000
192,1,192,460.4011,1.5999,fruitveg,0,0,1,0.4768,NR,0,999.0000
193,1,193,462.0012,1.5991,fruitveg,0,0,1,0.5342,NR,0,999.0000
194,1,194,463.6004,1.5998,fruitveg,0,0,1,0.4174,NR,0,999.0000
195,1,195,465.2004,1.6006,fruitveg,1,NR,0,999.0000,1,1,0.2270
196,1,196,466.8012,1.5994,fruitveg,0,0,1,0.5593,NR,0,999.0000
197,1,197,468.4008,1.5993,fruitveg,1,NR,0,999.0000,1,1,0.1538
198,1,198,470.0038,9.9973,rest,0,NR,1,999.0000,NR,1,0.0000
199,1,199,480.0013,1.6000,face,0,NR,0,999.0000,0,1,0.4957
200,1,200,481.6016,1.5994,face,0,0,1,0.5694,NR,0,999.0000
201,1,201,483.2012,1.5990,face,1,1,1,0.5358,NR,0,999.0000
202,1,202,484.8004,1.6004,face,0,0,1,0.5146,NR,0,999.0000
203,1,203,486.4009,1.5999,face,0,0,1,0.5494,NR,0,999.0000
204,1,204,488.0011,1.5991,face,0,0,1,0.5135,NR,0,999.0000
205,1,205,489.6004,1.6001,face,1,0,0,0.4500,1,1,0.4366
206,1,206,491.2007,1.5998,face,0,0,1,0.5177,NR,0,999.0000
207,1,207,492.8007,1.5994,face,0,0,1,0.4381,NR,0,999.0000
208,1,208,494.4003,1.5998,face,1,1,1,0.4983,NR,0,999.0000
209,1,209,496.0121,9.9893,rest,0,NR,1,999.0000,NR,1,0.0000
210,1,210,506.0016,1.5996,animal,0,NR,0,999.0000,0,1,0.4442
211,1,211,507.6015,1.5987,animal,0,0,1,0.5773,NR,0,999.0000
212,1,212,509.2003,1.6006,animal,1,1,1,0.4587,NR,0,999.0000
213,1,213,510.8011,1.6003,animal,0,NR,0,999.0000,0,1,0.0463
214,1,214,512.4015,1.5988,animal,0,NR,0,999.0000,NR,0,999.0000
215,1,215,514.0005,1.5999,animal,1,1,1,0.5153,NR,0,999.0000
216,1,216,515.6006,1.6007,animal,0,0,1,0.5262,NR,0,999.0000
217,1,217,517.2015,1.5994,animal,1,NR,0,999.0000,1,1,0.7334
218,1,218,518.8011,1.5996,animal,0,NR,0,999.0000,0,1,0.4386
219,1,219,520.4009,1.5997,animal,0,NR,0,999.0000,0,1,0.2995
220,1,220,522.0048,9.9963,rest,0,NR,1,999.0000,NR,1,0.0000
221,2,1,12.0017,1.6000,face,0,NR,0,999.0000,NR,0,999.0000
222,2,2,13.6020,1.5990,face,0,NR,0,999.0000,NR,0,999.0000
223,2,3,15.2011,1.5990,face,0,0,1,0.4951,NR,0,999.0000
224,2,4,16.8004,1.6007,face,1,1,1,0.3658,NR,0,999.0000
225,2,5,18.4012,1.6001,face,0,0,1,0.3458,NR,0,999.0000
226,2,6,20.0016,1.5990,face,0,0,1,0.4633,NR,0,999.0000
227,2,7,21.6008,1.5998,face,1,1,1,0.5836,NR,0,999.0000
228,2,8,23.2008,1.6004,face,0,0,1,0.4110,NR,0,999.0000
229,2,9,24.8014,1.5988,face,1,1,1,0.5724,NR,0,999.0000
230,2,10,26.4004,1.6004,face,0,0,1,0.5731,NR,0,999.0000
231,2,11,28.0136,9.9873,rest,0,NR,1,999.0000,NR,1,0.0000
232,2,12,38.0010,1.5998,face,0,NR,0,999.0000,0,1,0.0677
233,2,13,39.6010,1.5995,face,0,NR,0,999.0000,1,0,0.0509
234,2,14,41.2007,1.6000,face,1,NR,0,999.0000,1,1,0.0624
235,2,15,42.8009,1.5994,face,0,NR,0,999.0000,0,1,0.0625
236,2,16,44.4005,1.6000,face,0,0,1,0.5146,NR,0,999.0000
237,2,17,46.0006,1.5995,face,0,0,1,0.5185,NR,0,999.0000
238,2,18,47.6003,1.6004,face,1,1,1,0.5617,NR,0,999.0000
239,2,19,49.2009,1.5996,face,0,0,1,0.3835,NR,0,999.0000
240,2,20,50.8007,1.6000,face,1,1,1,0.5707,NR,0,999.0000
241,2,21,52.4009,1.6001,face,0,NR,0,999.0000,0,1,0.0312
242,2,22,54.0136,9.9867,rest,0,NR,1,999.0000,NR,1,0.0000
243,2,23,64.0006,1.6001,virtualtown,0,NR,0,999.0000,0,1,0.2645
244,2,24,65.6009,1.5992,virtualtown,0,NR,0,999.0000,0,1,0.0793
245,2,25,67.2003,1.6005,virtualtown,0,0,1,0.5766,NR,0,999.0000
246,2,26,68.8010,1.5999,virtualtown,1,NR,0,999.0000,NR,0,999.0000
247,2,27,70.4011,1.6003,virtualtown,0,NR,0,999.0000,0,1,0.1931
248,2,28,72.0016,1.5988,virtualtown,1,NR,0,999.0000,1,1,0.1019
249,2,29,73.6005,1.5999,virtualtown,0,NR,0,999.0000,0,1,0.0047
250,2,30,75.2007,1.6006,virtualtown,0,NR,0,999.0000,0,1,0.2715
251,2,31,76.8014,1.5999,virtualtown,1,NR,0,999.0000,1,1,0.1037
252,2,32,78.4016,1.5997,virtualtown,0,NR,0,999.0000,0,1,0.0119
253,2,33,80.0142,9.9869,rest,0,NR,1,999.0000,NR,1,0.0000
254,2,34,90.0013,1.5988,face,0,NR,0,999.0000,0,1,0.0608
255,2,35,91.6003,1.6003,face,0,NR,0,999.0000,0,1,0.0256
256,2,36,93.2008,1.6006,face,1,1,1,0.5456,NR,0,999.0000
257,2,37,94.8016,1.5989,face,0,0,1,0.5048,NR,0,999.0000
258,2,38,96.4007,1.5994,face,0,NR,0,999.0000,0,1,0.3035
259,2,39,98.0003,1.6009,face,0,0,1,0.4695,NR,0,999.0000
260,2,40,99.6014,1.5992,face,1,NR,0,999.0000,1,1,0.0602
261,2,41,101.2008,1.5994,face,0,0,1,0.5040,NR,0,999.0000
262,2,42,102.8003,1.6002,face,0,NR,0,999.0000,0,1,0.0367
263,2,43,104.4008,1.6004,face,1,1,1,0.5719,NR,0,999.0000
264,2,44,106.0147,9.9864,rest,0,NR,1,999.0000,NR,1,0.0000
265,2,45,116.0013,1.5988,tool,0,NR,0,999.0000,0,1,0.1536
266,2,46,117.6003,1.6000,tool,0,0,1,0.4935,NR,0,999.0000
267,2,47,119.2005,1.6007,tool,0,NR,0,999.0000,0,1,0.0187
268,2,48,120.8015,1.5992,tool,1,NR,0,999.0000,1,1,0.0649
269,2,49,122.4009,1.6002,tool,0,NR,0,999.0000,0,1,0.0798
270,2,50,124.0012,1.6001,tool,0,0,1,0.5384,NR,0,999.0000
271,2,51,125.6015,1.5988,tool,1,1,1,0.3667,NR,0,999.0000
272,2,52,127.2006,1.5999,tool,0,0,1,0.5041,NR,0,999.0000
273,2,53,128.8007,1.6004,tool,0,NR,0,999.0000,NR,0,999.0000
274,2,54,130.4013,1.5995,tool,1,1,1,0.3352,NR,0,999.0000
275,2,55,132.0155,9.9851,rest,0,NR,1,999.0000,NR,1,0.0000
276,2,56,142.0008,1.5998,animal,0,NR,0,999.0000,0,1,0.6527
277,2,57,143.6008,1.5994,animal,0,NR,0,999.0000,0,1,0.2738
278,2,58,145.2004,1.5997,animal,1,NR,0,999.0000,1,1,0.0621
279,2,59,146.8003,1.6007,animal,0,0,1,0.5495,NR,0,999.0000
280,2,60,148.4012,1.5994,animal,0,NR,0,999.0000,NR,0,999.0000
281,2,61,150.0008,1.6002,animal,1,1,1,0.5197,NR,0,999.0000
282,2,62,151.6012,1.6001,animal,0,0,1,0.4935,NR,0,999.0000
283,2,63,153.2015,1.5994,animal,0,0,1,0.4648,NR,0,999.0000
284,2,64,154.8011,1.5998,animal,0,0,1,0.5191,NR,0,999.0000
285,2,65,156.4011,1.5993,animal,1,1,1,0.3116,NR,0,999.0000
286,2,66,158.0161,9.9843,rest,0,NR,1,999.0000,NR,1,0.0000
287,2,67,168.0006,1.5995,virtualtown,0,NR,0,999.0000,0,1,0.2564
288,2,68,169.6003,1.6001,virtualtown,0,NR,0,999.0000,0,1,0.0698
289,2,69,171.2006,1.6003,virtualtown,1,NR,0,999.0000,1,1,0.0075
290,2,70,172.8011,1.5999,virtualtown,0,NR,0,999.0000,0,1,0.0061
291,2,71,174.4012,1.5989,virtualtown,1,NR,0,999.0000,0,0,0.5962
292,2,72,176.0003,1.6006,virtualtown,0,1,0,0.1014,0,1,0.3274
293,2,73,177.6011,1.5999,virtualtown,0,NR,0,999.0000,0,1,0.4741
294,2,74,179.2012,1.5998,virtualtown,1,NR,0,999.0000,0,0,0.2459
295,2,75,180.8012,1.5989,virtualtown,0,NR,0,999.0000,0,1,0.2125
296,2,76,182.4003,1.5998,virtualtown,0,NR,0,999.0000,0,1,0.1986
297,2,77,184.0166,9.9838,rest,0,NR,1,999.0000,NR,1,0.0000
298,2,78,194.0007,1.6005,animal,0,NR,0,999.0000,0,1,0.3035
299,2,79,195.6014,1.5990,animal,0,0,1,0.5361,NR,0,999.0000
300,2,80,197.2006,1.6006,animal,1,1,1,0.3511,NR,0,999.0000
301,2,81,198.8014,1.5990,animal,0,0,1,0.4781,NR,0,999.0000
302,2,82,200.4006,1.6001,animal,0,0,1,0.5106,NR,0,999.0000
303,2,83,202.0008,1.6000,animal,0,0,1,0.5138,NR,0,999.0000
304,2,84,203.6011,1.5990,animal,1,NR,0,999.0000,1,1,0.0395
305,2,85,205.2003,1.5999,animal,0,0,1,0.5277,NR,0,999.0000
306,2,86,206.8004,1.5997,animal,0,0,1,0.4584,NR,0,999.0000
307,2,87,208.4003,1.6008,animal,1,0,0,0.5362,1,1,0.5230
308,2,88,210.0174,9.9838,rest,0,NR,1,999.0000,NR,1,0.0000
309,2,89,220.0014,1.5990,face,0,NR,0,999.0000,0,1,0.0815
310,2,90,221.6006,1.5999,face,0,0,1,0.4095,NR,0,999.0000
311,2,91,223.2007,1.5996,face,1,1,1,0.3208,NR,0,999.0000
312,2,92,224.8006,1.6006,face,0,0,1,0.4183,NR,0,999.0000
313,2,93,226.4014,1.5989,face,1,1,1,0.4852,NR,0,999.0000
314,2,94,228.0005,1.6010,face,0,0,1,0.4097,NR,0,999.0000
315,2,95,229.6016,1.5992,face,0,NR,0,999.0000,0,1,0.0129
316,2,96,231.2010,1.5995,face,0,0,1,0.4816,NR,0,999.0000
317,2,97,232.8008,1.6004,face,1,1,1,0.4520,NR,0,999.0000
318,2,98,234.4014,1.5995,face,0,0,1,0.3974,NR,0,999.0000
319,2,99,236.0179,9.9824,rest,0,NR,1,999.0000,NR,1,0.0000
320,2,100,246.0006,1.6005,virtualtown,0,NR,0,999.0000,0,1,0.1515
321,2,101,247.6014,1.5993,virtualtown,0,NR,0,999.0000,0,1,0.0158
322,2,102,249.2009,1.6002,virtualtown,1,1,1,0.5260,NR,0,999.0000
323,2,103,250.8013,1.5999,virtualtown,0,0,1,0.4566,NR,0,999.0000
324,2,104,252.4014,1.5988,virtualtown,0,0,1,0.5793,NR,0,999.0000
325,2,105,254.0004,1.6005,virtualtown,1,NR,0,999.0000,1,1,0.0655
326,2,106,255.6011,1.5999,virtualtown,0,0,1,0.4570,NR,0,999.0000
327,2,107,257.2012,1.6000,virtualtown,0,0,1,0.4745,NR,0,999.0000
328,2,108,258.8015,1.5992,virtualtown,0,NR,0,999.0000,NR,0,999.0000
329,2,109,260.4009,1.5992,virtualtown,1,1,1,0.5543,NR,0,999.0000
330,2,110,262.0186,9.9822,rest,0,NR,1,999.0000,NR,1,0.0000
331,2,111,272.0009,1.5997,virtualtown,0,NR,0,999.0000,NR,0,999.0000
332,2,112,273.6009,1.5995,virtualtown,0,0,1,0.5672,NR,0,999.0000
333,2,113,275.2006,1.6005,virtualtown,0,0,1,0.5649,NR,0,999.0000
334,2,114,276.8013,1.6000,virtualtown,1,NR,0,999.0000,1,1,0.0949
335,2,115,278.4015,1.5989,virtualtown,0,0,1,0.5501,NR,0,999.0000
336,2,116,280.0006,1.5997,virtualtown,1,NR,0,999.0000,1,1,0.1648
337,2,117,281.6005,1.5995,virtualtown,0,0,1,0.5146,NR,0,999.0000
338,2,118,283.2002,1.6005,virtualtown,0,NR,0,999.0000,0,1,0.0772
339,2,119,284.8010,1.6001,virtualtown,0,NR,0,999.0000,0,1,0.0843
340,2,120,286.4013,1.5993,virtualtown,1,1,1,0.4510,NR,0,999.0000
341,2,121,288.0124,9.9882,rest,0,NR,1,999.0000,NR,1,0.0000
342,2,122,298.0010,1.5994,fruitveg,0,0,1,0.4718,NR,0,999.0000
343,2,123,299.6006,1.5999,fruitveg,0,0,1,0.4963,NR,0,999.0000
344,2,124,301.2007,1.6002,fruitveg,0,0,1,0.4271,NR,0,999.0000
345,2,125,302.8011,1.6000,fruitveg,1,1,1,0.5584,NR,0,999.0000
346,2,126,304.4014,1.5991,fruitveg,0,0,1,0.4898,NR,0,999.0000
347,2,127,306.0006,1.6000,fruitveg,0,0,1,0.3860,NR,0,999.0000
348,2,128,307.6008,1.5998,fruitveg,1,NR,0,999.0000,1,1,0.0445
349,2,129,309.2008,1.5996,fruitveg,0,0,1,0.4090,NR,0,999.0000
350,2,130,310.8007,1.6004,fruitveg,1,1,1,0.4150,NR,0,999.0000
351,2,131,312.4012,1.5989,fruitveg,0,0,1,0.4242,NR,0,999.0000
352,2,132,314.0040,9.9963,rest,0,NR,1,999.0000,NR,1,0.0000
353,2,133,324.0005,1.6006,animal,0,NR,0,999.0000,0,1,0.0150
354,2,134,325.6013,1.5990,animal,0,0,1,0.4612,NR,0,999.0000
355,2,135,327.2005,1.6008,animal,1,0,0,0.4386,1,1,0.1265
356,2,136,328.8016,1.5990,animal,0,0,1,0.4772,NR,0,999.0000
357,2,137,330.4008,1.5995,animal,1,1,1,0.4653,NR,0,999.0000
358,2,138,332.0005,1.6004,animal,0,0,1,0.3950,NR,0,999.0000
359,2,139,333.6011,1.5999,animal,1,1,1,0.3170,NR,0,999.0000
360,2,140,335.2012,1.5990,animal,0,0,1,0.3499,NR,0,999.0000
361,2,141,336.8003,1.6003,animal,0,0,1,0.4509,NR,0,999.0000
362,2,142,338.4007,1.5997,animal,0,0,1,0.5034,NR,0,999.0000
363,2,143,340.0122,9.9879,rest,0,NR,1,999.0000,NR,1,0.0000
364,2,144,350.0004,1.6000,animal,0,NR,0,999.0000,0,1,0.2709
365,2,145,351.6005,1.6001,animal,0,0,1,0.4340,NR,0,999.0000
366,2,146,353.2008,1.6003,animal,0,0,1,0.5139,NR,0,999.0000
367,2,147,354.8013,1.5993,animal,1,1,1,0.3698,NR,0,999.0000
368,2,148,356.4008,1.6003,animal,0,0,1,0.5721,NR,0,999.0000
369,2,149,358.0013,1.5996,animal,0,0,1,0.5137,NR,0,999.0000
370,2,150,359.6011,1.5990,animal,0,0,1,0.5299,NR,0,999.0000
371,2,151,361.2003,1.5998,animal,1,1,1,0.4427,NR,0,999.0000
372,2,152,362.8003,1.5998,animal,0,0,1,0.2415,NR,0,999.0000
373,2,153,364.4003,1.6009,animal,1,1,1,0.3876,NR,0,999.0000
374,2,154,366.0045,9.9960,rest,0,NR,1,999.0000,NR,1,0.0000
375,2,155,376.0007,1.6004,fruitveg,0,0,1,0.2868,NR,0,999.0000
376,2,156,377.6013,1.5987,fruitveg,0,0,1,0.4721,NR,0,999.0000
377,2,157,379.2003,1.6007,fruitveg,0,0,1,0.3866,NR,0,999.0000
378,2,158,380.8011,1.6003,fruitveg,1,1,1,0.2653,NR,0,999.0000
379,2,159,382.4016,1.5998,fruitveg,0,0,1,0.3361,NR,0,999.0000
380,2,160,384.0016,1.5993,fruitveg,0,0,1,0.3966,NR,0,999.0000
381,2,161,385.6011,1.5994,fruitveg,0,0,1,0.3848,NR,0,999.0000
382,2,162,387.2007,1.6004,fruitveg,1,1,1,0.4539,NR,0,999.0000
383,2,163,388.8012,1.5991,fruitveg,0,0,1,0.2852,NR,0,999.0000
384,2,164,390.4005,1.5999,fruitveg,1,NR,0,999.0000,1,1,0.2506
385,2,165,392.0120,9.9891,rest,0,NR,1,999.0000,NR,1,0.0000
386,2,166,402.0014,1.5993,tool,0,0,1,0.4060,NR,0,999.0000
387,2,167,403.6009,1.6000,tool,0,1,0,0.4949,NR,0,999.0000
388,2,168,405.2011,1.5998,tool,1,0,0,0.2270,1,1,0.2533
389,2,169,406.8011,1.5993,tool,0,NR,0,999.0000,1,0,0.3815
390,2,170,408.4006,1.6006,tool,1,NR,0,999.0000,1,1,0.1143
391,2,171,410.0015,1.5993,tool,0,NR,0,999.0000,0,1,0.2448
392,2,172,411.6010,1.6000,tool,0,NR,0,999.0000,0,1,0.0216
393,2,173,413.2012,1.5991,tool,0,NR,0,999.0000,NR,0,999.0000
394,2,174,414.8005,1.6006,tool,1,1,1,0.5009,NR,0,999.0000
395,2,175,416.4014,1.5996,tool,0,NR,0,999.0000,0,1,0.0268
396,2,176,418.0057,9.9958,rest,0,NR,1,999.0000,NR,1,0.0000
397,2,177,428.0017,1.5984,fruitveg,0,0,1,0.3691,NR,0,999.0000
398,2,178,429.6003,1.6009,fruitveg,0,0,1,0.3955,NR,0,999.0000
399,2,179,431.2014,1.5998,fruitveg,1,1,1,0.5652,NR,0,999.0000
400,2,180,432.8014,1.6000,fruitveg,0,0,1,0.4078,NR,0,999.0000
401,2,181,434.4015,1.5993,fruitveg,0,0,1,0.5052,NR,0,999.0000
402,2,182,436.0010,1.6002,fruitveg,0,NR,0,999.0000,0,1,0.2680
403,2,183,437.6015,1.5988,fruitveg,1,1,1,0.3848,NR,0,999.0000
404,2,184,439.2004,1.5998,fruitveg,0,0,1,0.2810,NR,0,999.0000
405,2,185,440.8004,1.6003,fruitveg,1,NR,0,999.0000,1,1,0.0496
406,2,186,442.4010,1.5996,fruitveg,0,NR,0,999.0000,0,1,0.5438
407,2,187,444.0119,9.9882,rest,0,NR,1,999.0000,NR,1,0.0000
408,2,188,454.0004,1.6009,tool,0,0,1,0.3583,NR,0,999.0000
409,2,189,455.6015,1.5988,tool,0,0,1,0.5475,NR,0,999.0000
410,2,190,457.2005,1.6000,tool,0,0,1,0.5414,NR,0,999.0000
411,2,191,458.8007,1.5999,tool,1,1,1,0.5271,NR,0,999.0000
412,2,192,460.4008,1.6004,tool,0,NR,0,999.0000,0,1,0.0300
413,2,193,462.0014,1.5997,tool,1,NR,0,999.0000,1,1,0.0437
414,2,194,463.6014,1.5988,tool,0,0,1,0.5185,NR,0,999.0000
415,2,195,465.2004,1.6001,tool,0,0,1,0.4974,NR,0,999.0000
416,2,196,466.8007,1.6004,tool,0,0,1,0.5227,NR,0,999.0000
417,2,197,468.4013,1.5997,tool,1,NR,0,999.0000,1,1,0.0185
418,2,198,470.0071,9.9933,rest,0,NR,1,999.0000,NR,1,0.0000
419,2,199,480.0005,1.6003,fruitveg,0,0,1,0.3238,NR,0,999.0000
420,2,200,481.6011,1.6000,fruitveg,0,0,1,0.3987,NR,0,999.0000
421,2,201,483.2013,1.5988,fruitveg,0,0,1,0.4254,NR,0,999.0000
422,2,202,484.8003,1.6010,fruitveg,0,NR,0,999.0000,0,1,0.1262
423,2,203,486.4015,1.5994,fruitveg,1,1,1,0.5680,NR,0,999.0000
424,2,204,488.0011,1.6002,fruitveg,0,0,1,0.5520,NR,0,999.0000
425,2,205,489.6015,1.5989,fruitveg,0,0,1,0.5380,NR,0,999.0000
426,2,206,491.2006,1.5995,fruitveg,1,1,1,0.5292,NR,0,999.0000
427,2,207,492.8003,1.6002,fruitveg,0,0,1,0.4774,NR,0,999.0000
428,2,208,494.4007,1.5994,fruitveg,1,0,0,0.4065,NR,0,999.0000
429,2,209,496.0118,9.9891,rest,0,NR,1,999.0000,NR,1,0.0000
430,2,210,506.0011,1.5996,tool,0,0,1,0.4407,NR,0,999.0000
431,2,211,507.6009,1.6003,tool,0,0,1,0.4313,NR,0,999.0000
432,2,212,509.2013,1.5990,tool,0,0,1,0.3622,NR,0,999.0000
433,2,213,510.8005,1.6002,tool,1,1,1,0.4994,NR,0,999.0000
434,2,214,512.4010,1.5998,tool,0,0,1,0.3020,NR,0,999.0000
435,2,215,514.0009,1.5997,tool,1,1,1,0.4973,NR,0,999.0000
436,2,216,515.6008,1.6002,tool,0,NR,0,999.0000,0,1,0.0046
437,2,217,517.2013,1.5999,tool,1,1,1,0.4834,NR,0,999.0000
438,2,218,518.8013,1.5992,tool,0,NR,0,999.0000,NR,0,999.0000
439,2,219,520.4007,1.6003,tool,0,0,1,0.4152,0,1,0.3387
440,2,220,522.0084,9.9917,rest,0,NR,1,999.0000,NR,1,0.0000
