index,run,trial,onset,duration,town,pic,itemNum,resp,respRT,itemType,acc16,1,6,98.7554,9.4741,Town1,env1.jpg,1,?,8.2642,face,017,1,6,98.7554,9.4741,Town1,env1.jpg,2,?,0.6,animal,018,1,6,98.7554,9.4741,Town1,env1.jpg,3,?,0.6082,object,061,2,9,153.9619,4.8792,Town1,env1.jpg,1,?,3.7583,face,062,2,9,153.9619,4.8792,Town1,env1.jpg,2,?,0.5843,animal,063,2,9,153.9619,4.8792,Town1,env1.jpg,3,?,0.5348,object,088,3,6,100.3808,16.0754,Town1,env1.jpg,1,Emma Watson,14.5784,face,089,3,6,100.3808,16.0754,Town1,env1.jpg,2,?,0.6795,animal,090,3,6,100.3808,16.0754,Town1,env1.jpg,3,?,0.8156,object,0133,4,9,101.0382,5.5153,Town1,env1.jpg,1,?,4.4273,face,0134,4,9,101.0382,5.5153,Town1,env1.jpg,2,?,0.5502,animal,0135,4,9,101.0382,5.5153,Town1,env1.jpg,3,?,0.5361,object,019,1,7,108.2578,14.8061,Town10,env10.jpg,1,?,13.3892,face,020,1,7,108.2578,14.8061,Town10,env10.jpg,2,?,0.7437,animal,021,1,7,108.2578,14.8061,Town10,env10.jpg,3,?,0.6714,object,046,2,4,77.8047,14.4056,Town10,env10.jpg,1,kate perry,7.3089,face,147,2,4,77.8047,14.4056,Town10,env10.jpg,2,grapes,4.696,object,148,2,4,77.8047,14.4056,Town10,env10.jpg,3,?,2.3989,animal,076,3,2,22.2874,15.1905,Town10,env10.jpg,1,Grapes,10.7348,object,177,3,2,22.2874,15.1905,Town10,env10.jpg,2,Duck,1.7658,animal,178,3,2,22.2874,15.1905,Town10,env10.jpg,3,Katy Perry,2.688,face,1142,4,12,128.3904,10.1145,Town10,env10.jpg,1,Katy Perry,3.8029,face,1143,4,12,128.3904,10.1145,Town10,env10.jpg,2,Grapes,2.6786,object,1144,4,12,128.3904,10.1145,Town10,env10.jpg,3,?,3.6312,animal,04,1,2,22.6029,23.0565,Town11,env11.jpg,1,CARROT,11.4091,object,15,1,2,22.6029,23.0565,Town11,env11.jpg,2,MALE ACTOR WEARING A HAT,6.4135,face,16,1,2,22.6029,23.0565,Town11,env11.jpg,3,ELEPHANT,5.2319,animal,140,2,2,13.0913,31.3532,Town11,env11.jpg,1,taylor swift,18.1132,face,041,2,2,13.0913,31.3532,Town11,env11.jpg,2,measuring tape,6.6078,object,042,2,2,13.0913,31.3532,Town11,env11.jpg,3,cow,6.6304,animal,085,3,5,75.9,24.4493,Town11,env11.jpg,1,?,23.12,face,086,3,5,75.9,24.4493,Town11,env11.jpg,2,?,0.6952,object,087,3,5,75.9,24.4493,Town11,env11.jpg,3,?,0.6321,animal,0127,4,7,78.2917,11.1876,Town11,env11.jpg,1,Johnny Depp,3.9804,face,1128,4,7,78.2917,11.1876,Town11,env11.jpg,2,Carrot,4.583,object,1129,4,7,78.2917,11.1876,Town11,env11.jpg,3,Elephant,2.6221,animal,110,1,4,66.6525,22.4775,Town12,env12.jpg,1,?,21.0289,face,011,1,4,66.6525,22.4775,Town12,env12.jpg,2,?,0.7678,object,012,1,4,66.6525,22.4775,Town12,env12.jpg,3,?,0.6788,animal,049,2,5,92.2357,20.402,Town12,env12.jpg,1,apple,4.1186,object,150,2,5,92.2357,20.402,Town12,env12.jpg,2,panda,7.9222,animal,151,2,5,92.2357,20.402,Town12,env12.jpg,3,Jess from New Girl,8.359,face,191,3,7,116.4884,36.0451,Town12,env12.jpg,1,Apple,6.6496,object,192,3,7,116.4884,36.0451,Town12,env12.jpg,2,Zoey ___,9.8773,face,193,3,7,116.4884,36.0451,Town12,env12.jpg,3,Polar Bear,19.5164,animal,1115,4,3,34.0431,9.8682,Town12,env12.jpg,1,grapes,3.3649,object,1116,4,3,34.0431,9.8682,Town12,env12.jpg,2,zoey ___,4.9665,face,1117,4,3,34.0431,9.8682,Town12,env12.jpg,3,panda,1.535,animal,11,1,1,1.001,21.572,Town2,env2.jpg,1,?,19.0648,face,02,1,1,1.001,21.572,Town2,env2.jpg,2,?,1.7522,object,03,1,1,1.001,21.572,Town2,env2.jpg,3,?,0.7511,animal,052,2,6,112.663,11.1993,Town2,env2.jpg,1,?,10.0628,face,053,2,6,112.663,11.1993,Town2,env2.jpg,2,?,0.5674,object,054,2,6,112.663,11.1993,Town2,env2.jpg,3,?,0.5673,animal,082,3,4,50.9339,24.9345,Town2,env2.jpg,1,?,18.6138,object,083,3,4,50.9339,24.9345,Town2,env2.jpg,2,George Clooney,3.9277,face,084,3,4,50.9339,24.9345,Town2,env2.jpg,3,?,2.3913,animal,0112,4,2,21.6334,12.3821,Town2,env2.jpg,1,zuckerberg,7.8211,face,1113,4,2,21.6334,12.3821,Town2,env2.jpg,2,cat,2.4798,animal,1114,4,2,21.6334,12.3821,Town2,env2.jpg,3,lettuce,2.0793,object,028,1,10,167.7521,5.3563,Town3,env3.jpg,1,?,4.1638,face,029,1,10,167.7521,5.3563,Town3,env3.jpg,2,?,0.6311,object,030,1,10,167.7521,5.3563,Town3,env3.jpg,3,?,0.5593,animal,037,2,1,1.0021,12.0644,Town3,env3.jpg,1,?,10.7817,face,038,2,1,1.0021,12.0644,Town3,env3.jpg,2,?,0.6872,object,039,2,1,1.0021,12.0644,Town3,env3.jpg,3,?,0.5915,animal,0106,3,12,220.0185,14.3594,Town3,env3.jpg,1,Natalie Portman,12.5186,face,0107,3,12,220.0185,14.3594,Town3,env3.jpg,2,?,1.271,object,0108,3,12,220.0185,14.3594,Town3,env3.jpg,3,?,0.5677,animal,0121,4,5,54.7722,13.3562,Town3,env3.jpg,1,Emma Watson,6.0515,face,1122,4,5,54.7722,13.3562,Town3,env3.jpg,2,Screwdriver,4.2314,object,1123,4,5,54.7722,13.3562,Town3,env3.jpg,3,Bear,3.0712,animal,113,1,5,89.1589,9.568,Town4,env4.jpg,1,?,8.3043,face,014,1,5,89.1589,9.568,Town4,env4.jpg,2,?,0.5515,object,015,1,5,89.1589,9.568,Town4,env4.jpg,3,?,0.7104,animal,064,2,10,158.8664,25.1594,Town4,env4.jpg,1,Emma Watson,20.0344,face,065,2,10,158.8664,25.1594,Town4,env4.jpg,2,?,4.6126,object,066,2,10,158.8664,25.1594,Town4,env4.jpg,3,?,0.5103,animal,0100,3,10,187.013,12.1844,Town4,env4.jpg,1,Natalie Portman,6.8164,face,1101,3,10,187.013,12.1844,Town4,env4.jpg,2,?,3.8937,object,0102,3,10,187.013,12.1844,Town4,env4.jpg,3,?,1.4725,animal,0109,4,1,1.0013,20.6048,Town4,env4.jpg,1,zebra,7.5572,animal,1110,4,1,1.0013,20.6048,Town4,env4.jpg,2,natalie portman,11.1405,face,1111,4,1,1.0013,20.6048,Town4,env4.jpg,3,?,1.9029,object,034,1,12,178.4401,34.0002,Town5,env5.jpg,1,GEORGE CLOONEY,27.0883,face,035,1,12,178.4401,34.0002,Town5,env5.jpg,2,?,6.2083,object,036,1,12,178.4401,34.0002,Town5,env5.jpg,3,?,0.7018,animal,043,2,3,44.4696,33.3095,Town5,env5.jpg,1,benedict cumberbach,10.7586,face,144,2,3,44.4696,33.3095,Town5,env5.jpg,2,hammer,2.6235,object,145,2,3,44.4696,33.3095,Town5,env5.jpg,3,?,19.9256,animal,073,3,1,1.0017,21.2528,Town5,env5.jpg,1,Benedict Cumberbach,11.8224,face,174,3,1,1.0017,21.2528,Town5,env5.jpg,2,Flamingo,7.1378,animal,175,3,1,1.0017,21.2528,Town5,env5.jpg,3,Hammer,2.2884,object,1136,4,10,106.5811,11.2369,Town5,env5.jpg,1,Benedict Cumberbach,4.2112,face,1137,4,10,106.5811,11.2369,Town5,env5.jpg,2,Flamingo,3.7684,animal,1138,4,10,106.5811,11.2369,Town5,env5.jpg,3,Hammer,3.2556,object,17,1,3,45.6879,20.9355,Town6,env6.jpg,1,HAMMER,8.6793,object,18,1,3,45.6879,20.9355,Town6,env6.jpg,2,BENEDICT CUMBERBACH,4.7116,face,19,1,3,45.6879,20.9355,Town6,env6.jpg,3,?,7.5428,animal,067,2,11,184.0511,15.9228,Town6,env6.jpg,1,Taylor Swift,9.7633,face,168,2,11,184.0511,15.9228,Town6,env6.jpg,2,Measuring Tape,4.5352,object,169,2,11,184.0511,15.9228,Town6,env6.jpg,3,Cow,1.6225,animal,194,3,8,152.5655,13.6167,Town6,env6.jpg,1,Cow,5.4884,animal,195,3,8,152.5655,13.6167,Town6,env6.jpg,2,Taylor Swift,4.376,face,196,3,8,152.5655,13.6167,Town6,env6.jpg,3,Measuring Tape,3.7503,object,1130,4,8,89.5073,11.5021,Town6,env6.jpg,1,Taylor Swift,3.6994,face,1131,4,8,89.5073,11.5021,Town6,env6.jpg,2,Cow,5.162,animal,1132,4,8,89.5073,11.5021,Town6,env6.jpg,3,Measuring tape,2.6391,object,131,1,11,173.1376,5.2741,Town7,env7.jpg,1,?,3.6415,face,032,1,11,173.1376,5.2741,Town7,env7.jpg,2,?,0.6962,object,033,1,11,173.1376,5.2741,Town7,env7.jpg,3,?,0.9346,animal,055,2,7,123.8873,9.232,Town7,env7.jpg,1,?,8.143,face,056,2,7,123.8873,9.232,Town7,env7.jpg,2,?,0.5427,object,057,2,7,123.8873,9.232,Town7,env7.jpg,3,?,0.5444,animal,097,3,9,166.2136,20.768,Town7,env7.jpg,1,Jim Parsons,15.3361,face,198,3,9,166.2136,20.768,Town7,env7.jpg,2,Electric Drill,3.2075,object,199,3,9,166.2136,20.768,Town7,env7.jpg,3,Giraffe,2.2224,animal,1118,4,4,43.9389,10.8058,Town7,env7.jpg,1,Jim Parsons,3.6047,face,1119,4,4,43.9389,10.8058,Town7,env7.jpg,2,Electric Drill,4.8067,object,1120,4,4,43.9389,10.8058,Town7,env7.jpg,3,Giraffe,2.3927,animal,122,1,8,123.0929,38.7357,Town8,env8.jpg,1,JIM PARSONS,23.6126,face,023,1,8,123.0929,38.7357,Town8,env8.jpg,2,ELECTRIC DRILL,7.1991,object,024,1,8,123.0929,38.7357,Town8,env8.jpg,3,GIRAFFE,7.9221,animal,058,2,8,133.1439,20.7927,Town8,env8.jpg,1,Beyonce,10.5658,face,159,2,8,133.1439,20.7927,Town8,env8.jpg,2,puppie,5.1525,animal,160,2,8,133.1439,20.7927,Town8,env8.jpg,3,?,5.0726,object,0103,3,11,199.2297,20.7561,Town8,env8.jpg,1,Puppy,14.0748,animal,1104,3,11,199.2297,20.7561,Town8,env8.jpg,2,Beyonce,1.9354,face,1105,3,11,199.2297,20.7561,Town8,env8.jpg,3,Oranges,4.7436,object,1124,4,6,68.1563,10.108,Town8,env8.jpg,1,Beyonce,3.131,face,1125,4,6,68.1563,10.108,Town8,env8.jpg,2,Cat,1.0482,animal,1126,4,6,68.1563,10.108,Town8,env8.jpg,3,Oranges,5.9269,object,125,1,9,161.8572,5.8661,Town9,env9.jpg,1,?,4.6011,face,026,1,9,161.8572,5.8661,Town9,env9.jpg,2,?,0.6567,object,027,1,9,161.8572,5.8661,Town9,env9.jpg,3,?,0.6065,animal,070,2,12,199.9988,20.2746,Town9,env9.jpg,1,Paul McCartney,10.232,face,171,2,12,199.9988,20.2746,Town9,env9.jpg,2,Zebra,2.3527,animal,072,2,12,199.9988,20.2746,Town9,env9.jpg,3,Wrench,7.6881,object,179,3,3,37.5123,13.3895,Town9,env9.jpg,1,Zebra,7.973,animal,080,3,3,37.5123,13.3895,Town9,env9.jpg,2,Paul McCartney,3.9033,face,181,3,3,37.5123,13.3895,Town9,env9.jpg,3,Wrench,1.5112,object,1139,4,11,117.8461,10.5158,Town9,env9.jpg,1,Paul McCartney,5.2354,face,1140,4,11,117.8461,10.5158,Town9,env9.jpg,2,Wrench,3.9186,object,1141,4,11,117.8461,10.5158,Town9,env9.jpg,3,Goat,1.36,animal,1