index,run,trial,onset,duration,town,pic,itemNum,resp,respRT
1,1,1,1.0023,43.0095,Town3,env3,1,?,27.0729
2,1,1,1.0023,43.0095,Town3,env3,2,?,14.3732
3,1,1,1.0023,43.0095,Town3,env3,3,?,1.5596
4,1,2,44.0608,39.7098,Town10,env10,1,grapes,20.9059
5,1,2,44.0608,39.7098,Town10,env10,2,johnny depp,11.6261
6,1,2,44.0608,39.7098,Town10,env10,3,hammer,7.1759
7,1,3,83.8176,9.5624,Town12,env12,1,?,7.4491
8,1,3,83.8176,9.5624,Town12,env12,2,?,1.1441
9,1,3,83.8176,9.5624,Town12,env12,3,?,0.9673
10,1,4,93.4265,5.6658,Town7,env7,1,?,3.7923
11,1,4,93.4265,5.6658,Town7,env7,2,?,0.9201
12,1,4,93.4265,5.6658,Town7,env7,3,?,0.9516
13,1,5,99.1386,6.0678,Town8,env8,1,?,4.1710
14,1,5,99.1386,6.0678,Town8,env8,2,?,0.9423
15,1,5,99.1386,6.0678,Town8,env8,3,?,0.9526
16,1,6,105.2531,3.6572,Town5,env5,1,?,2.1443
17,1,6,105.2531,3.6572,Town5,env5,2,?,0.7281
18,1,6,105.2531,3.6572,Town5,env5,3,?,0.7829
19,1,7,108.9566,30.2300,Town4,env4,1,george clooney,19.8374
20,1,7,108.9566,30.2300,Town4,env4,2,horse,3.3025
21,1,7,108.9566,30.2300,Town4,env4,3,letttuce,7.0883
22,1,8,139.2332,7.7876,Town11,env11,1,?,6.1313
23,1,8,139.2332,7.7876,Town11,env11,2,?,0.8240
24,1,8,139.2332,7.7876,Town11,env11,3,?,0.8306
25,1,9,147.0677,23.3886,Town2,env2,1,?,21.8918
26,1,9,147.0677,23.3886,Town2,env2,2,?,0.7430
27,1,9,147.0677,23.3886,Town2,env2,3,?,0.7519
28,1,10,170.5030,6.6085,Town6,env6,1,?,2.7839
29,1,10,170.5030,6.6085,Town6,env6,2,?,0.6241
30,1,10,170.5030,6.6085,Town6,env6,3,?,3.1987
31,1,11,177.1581,5.6428,Town9,env9,1,?,4.0732
32,1,11,177.1581,5.6428,Town9,env9,2,?,0.8157
33,1,11,177.1581,5.6428,Town9,env9,3,?,0.7521
34,1,12,182.8477,3.9919,Town1,env1,1,?,2.2882
35,1,12,182.8477,3.9919,Town1,env1,2,?,0.9435
36,1,12,182.8477,3.9919,Town1,env1,3,?,0.7584
37,2,1,1.0017,29.5983,Town5,env5,1,beyonce,24.3225
38,2,1,1.0017,29.5983,Town5,env5,2,dog,2.3523
39,2,1,1.0017,29.5983,Town5,env5,3,oranges,2.9195
40,2,2,30.6486,11.3755,Town3,env3,1,??,9.3757
41,2,2,30.6486,11.3755,Town3,env3,2,?,1.2146
42,2,2,30.6486,11.3755,Town3,env3,3,?,0.7834
43,2,3,42.0730,9.9119,Town7,env7,1,?,6.1105
44,2,3,42.0730,9.9119,Town7,env7,2,?,1.1595
45,2,3,42.0730,9.9119,Town7,env7,3,?,2.6401
46,2,4,52.0336,13.4358,Town12,env12,1,katy perry,8.8354
47,2,4,52.0336,13.4358,Town12,env12,2,screwdriver,2.8953
48,2,4,52.0336,13.4358,Town12,env12,3,rhino,1.7034
49,2,5,65.5182,19.6284,Town6,env6,1,?,18.1008
50,2,5,65.5182,19.6284,Town6,env6,2,?,0.8299
51,2,5,65.5182,19.6284,Town6,env6,3,/,0.6959
52,2,6,85.1949,5.3842,Town1,env1,1,?,3.2069
53,2,6,85.1949,5.3842,Town1,env1,2,?,1.0553
54,2,6,85.1949,5.3842,Town1,env1,3,?,1.1202
55,2,7,90.6279,10.2839,Town9,env9,1,?,6.5709
56,2,7,90.6279,10.2839,Town9,env9,2,?,0.8317
57,2,7,90.6279,10.2839,Town9,env9,3,?,2.8793
58,2,8,100.9597,17.6498,Town10,env10,1,katy perry,7.4630
59,2,8,100.9597,17.6498,Town10,env10,2,duck,1.1348
60,2,8,100.9597,17.6498,Town10,env10,3,grapes,9.0502
61,2,9,118.6577,15.8085,Town11,env11,1,sherlock,5.7837
62,2,9,118.6577,15.8085,Town11,env11,2,watermelon,2.3598
63,2,9,118.6577,15.8085,Town11,env11,3,scrwdriver,7.6631
64,2,10,134.5150,31.2944,Town2,env2,1,mark zuckerberg,7.9099
65,2,10,134.5150,31.2944,Town2,env2,2,Cucumbers,6.9681
66,2,10,134.5150,31.2944,Town2,env2,3,?,16.4144
67,2,11,165.8578,5.3434,Town8,env8,1,?,3.3271
68,2,11,165.8578,5.3434,Town8,env8,2,?,1.1670
69,2,11,165.8578,5.3434,Town8,env8,3,?,0.8475
70,2,12,171.2492,3.2076,Town4,env4,1,?,1.6877
71,2,12,171.2492,3.2076,Town4,env4,2,?,0.7916
72,2,12,171.2492,3.2076,Town4,env4,3,?,0.7262
73,3,1,1.0014,24.7327,Town7,env7,1,giraffe,9.9389
74,3,1,1.0014,24.7327,Town7,env7,2,drill,4.2964
75,3,1,1.0014,24.7327,Town7,env7,3,?,10.4933
76,3,2,25.7828,41.0365,Town2,env2,1,mark zuckerberg,13.8592
77,3,2,25.7828,41.0365,Town2,env2,2,cucumber,3.8074
78,3,2,25.7828,41.0365,Town2,env2,3,banana,23.3682
79,3,3,66.8670,24.5268,Town11,env11,1,beyonce,16.9656
80,3,3,66.8670,24.5268,Town11,env11,2,oranges,4.3352
81,3,3,66.8670,24.5268,Town11,env11,3,dog,3.2243
82,3,4,91.4417,35.9258,Town12,env12,1,talyor swift,27.6922
83,3,4,91.4417,35.9258,Town12,env12,2,tape measure,6.8878
84,3,4,91.4417,35.9258,Town12,env12,3,horse,1.3441
85,3,5,127.4171,11.3194,Town8,env8,1,?,9.6306
86,3,5,127.4171,11.3194,Town8,env8,2,?,0.9265
87,3,5,127.4171,11.3194,Town8,env8,3,?,0.7606
88,3,6,138.7859,9.6857,Town10,env10,1,grapes,3.5337
89,3,6,138.7859,9.6857,Town10,env10,2,katy perry,4.7756
90,3,6,138.7859,9.6857,Town10,env10,3,duck,1.3746
91,3,7,148.5206,13.1656,Town1,env1,1,?,11.5814
92,3,7,148.5206,13.1656,Town1,env1,2,?,0.8799
93,3,7,148.5206,13.1656,Town1,env1,3,?,0.7026
94,3,8,161.7352,18.7450,Town6,env6,1,alligator,8.9314
95,3,8,161.7352,18.7450,Town6,env6,2,natalie portman,8.7635
96,3,8,161.7352,18.7450,Town6,env6,3,saw,1.0484
97,3,9,180.5291,12.8782,Town3,env3,1,emma watson,7.3029
98,3,9,180.5291,12.8782,Town3,env3,2,rhino,1.9112
99,3,9,180.5291,12.8782,Town3,env3,3,screwdriver,3.6623
100,3,10,193.4563,18.1309,Town5,env5,1,sherlock,4.7838
101,3,10,193.4563,18.1309,Town5,env5,2,watermelon,5.7423
102,3,10,193.4563,18.1309,Town5,env5,3,?,7.6031
103,3,11,211.6352,7.5535,Town9,env9,1,?,6.0405
104,3,11,211.6352,7.5535,Town9,env9,2,?,0.6954
105,3,11,211.6352,7.5535,Town9,env9,3,?,0.8156
106,3,12,219.2374,25.8409,Town4,env4,1,Natalie portman,12.2245
107,3,12,219.2374,25.8409,Town4,env4,2,alligator,9.0790
108,3,12,219.2374,25.8409,Town4,env4,3,saw,4.5356
109,4,1,1.0015,18.6158,Town8,env8,1,beyonce,12.1026
110,4,1,1.0015,18.6158,Town8,env8,2,oranges,5.0619
111,4,1,1.0015,18.6158,Town8,env8,3,dog,1.4473
112,4,2,19.6641,20.4911,Town4,env4,1,natalie portman,13.1777
113,4,2,19.6641,20.4911,Town4,env4,2,alligator,5.0958
114,4,2,19.6641,20.4911,Town4,env4,3,saw,2.2158
115,4,3,40.2004,12.8414,Town5,env5,1,sherlock,4.2008
116,4,3,40.2004,12.8414,Town5,env5,2,watermelon,4.5444
117,4,3,40.2004,12.8414,Town5,env5,3,flamingo,4.0944
118,4,4,53.0887,17.2927,Town3,env3,1,emma watson,7.8111
119,4,4,53.0887,17.2927,Town3,env3,2,scrwdriver,4.6480
120,4,4,53.0887,17.2927,Town3,env3,3,rhino,4.8319
121,4,5,70.4275,16.2716,Town12,env12,1,johnny depp,6.8217
122,4,5,70.4275,16.2716,Town12,env12,2,carrot,3.3207
123,4,5,70.4275,16.2716,Town12,env12,3,hammer,6.1275
124,4,6,86.7460,10.6688,Town11,env11,1,?,9.3716
125,4,6,86.7460,10.6688,Town11,env11,2,?,0.6477
126,4,6,86.7460,10.6688,Town11,env11,3,?,0.6479
127,4,7,97.4618,20.6892,Town2,env2,1,mark zuckerberg,6.9933
128,4,7,97.4618,20.6892,Town2,env2,2,cucumber,9.0304
129,4,7,97.4618,20.6892,Town2,env2,3,scissors,4.6639
130,4,8,118.1977,37.0659,Town7,env7,1,?,3.8010
131,4,8,118.1977,37.0659,Town7,env7,2,girrafe,28.0778
132,4,8,118.1977,37.0659,Town7,env7,3,?,5.1850
133,4,9,155.3107,10.1173,Town1,env1,1,?,8.7325
134,4,9,155.3107,10.1173,Town1,env1,2,?,0.7835
135,4,9,155.3107,10.1173,Town1,env1,3,?,0.5996
136,4,10,165.4737,11.7147,Town10,env10,1,duck,3.4898
137,4,10,165.4737,11.7147,Town10,env10,2,katy perry,4.6390
138,4,10,165.4737,11.7147,Town10,env10,3,grapes,3.5842
139,4,11,177.2343,39.9846,Town9,env9,1,Paul Mcartney,13.4625
140,4,11,177.2343,39.9846,Town9,env9,2,?,25.9370
141,4,11,177.2343,39.9846,Town9,env9,3,?,0.5834
142,4,12,217.2669,10.3919,Town6,env6,1,?,7.9273
143,4,12,217.2669,10.3919,Town6,env6,2,?,0.6157
144,4,12,217.2669,10.3919,Town6,env6,3,?,1.8472
145,5,1,1.0018,29.5609,Town8,env8,1,beyonce,16.2396
146,5,1,1.0018,29.5609,Town8,env8,2,oranges,6.5558
147,5,1,1.0018,29.5609,Town8,env8,3,dog,6.7616
148,5,2,30.6035,13.9423,Town3,env3,1,emma watson,6.3270
149,5,2,30.6035,13.9423,Town3,env3,2,screwdriver,5.3173
150,5,2,30.6035,13.9423,Town3,env3,3,rhino,2.2962
151,5,3,44.5870,11.9264,Town10,env10,1,zooey deschanel,8.4148
152,5,3,44.5870,11.9264,Town10,env10,2,duck,1.2476
153,5,3,44.5870,11.9264,Town10,env10,3,grapes,2.2622
154,5,4,56.5547,30.7012,Town6,env6,1,natalie portman,17.8089
155,5,4,56.5547,30.7012,Town6,env6,2,alligator,11.9162
156,5,4,56.5547,30.7012,Town6,env6,3,saw,0.9744
157,5,5,87.2973,24.2850,Town1,env1,1,paul mcartney,16.9884
158,5,5,87.2973,24.2850,Town1,env1,2,?,6.1119
159,5,5,87.2973,24.2850,Town1,env1,3,?,1.1829
160,5,6,111.6234,10.6067,Town7,env7,1,?,7.1033
161,5,6,111.6234,10.6067,Town7,env7,2,giraffe,1.9910
162,5,6,111.6234,10.6067,Town7,env7,3,?,1.5104
163,5,7,122.2716,21.9302,Town12,env12,1,zooey deschanel,17.0087
164,5,7,122.2716,21.9302,Town12,env12,2,apple,2.4323
165,5,7,122.2716,21.9302,Town12,env12,3,?,2.4875
166,5,8,144.2429,17.9504,Town2,env2,1,mark zuckerberg,4.5893
167,5,8,144.2429,17.9504,Town2,env2,2,cucmber,3.4874
168,5,8,144.2429,17.9504,Town2,env2,3,scissors,9.8720
169,5,9,162.2345,20.7410,Town11,env11,1,johnny depp,11.8214
170,5,9,162.2345,20.7410,Town11,env11,2,carrot,4.3757
171,5,9,162.2345,20.7410,Town11,env11,3,hammer,4.5421
172,5,10,183.0170,15.7193,Town5,env5,1,benedict cumberbatch,8.5669
173,5,10,183.0170,15.7193,Town5,env5,2,watermelon,2.0795
174,5,10,183.0170,15.7193,Town5,env5,3,flamingo,5.0711
175,5,11,198.7775,14.2955,Town4,env4,1,natalie portman,10.8161
176,5,11,198.7775,14.2955,Town4,env4,2,saw,1.5996
177,5,11,198.7775,14.2955,Town4,env4,3,alligator,1.8780
178,5,12,213.1143,20.8456,Town9,env9,1,paul mcartney,9.6540
179,5,12,213.1143,20.8456,Town9,env9,2,?,9.8307
180,5,12,213.1143,20.8456,Town9,env9,3,?,1.3592
