index,run,trial,onset,duration,town,pic,itemNum,resp,respRT
1,1,1,1.0020,30.8752,Town8,env8,1,grape,20.9280
2,1,1,1.0020,30.8752,Town8,env8,2,puppy,4.2310
3,1,1,1.0020,30.8752,Town8,env8,3,screwdriver,5.7121
4,1,2,31.9236,27.2322,Town7,env7,1,Katy Perry,13.2482
5,1,2,31.9236,27.2322,Town7,env7,2,cucumber,5.5109
6,1,2,31.9236,27.2322,Town7,env7,3,apple,8.4711
7,1,3,59.2024,34.3864,Town5,env5,1,stapler,7.9931
8,1,3,59.2024,34.3864,Town5,env5,2,Mark zukerberg,15.0940
9,1,3,59.2024,34.3864,Town5,env5,3,lettuce,11.2975
10,1,4,93.6357,48.4658,Town3,env3,1,Beoncye orange drill,39.5374
11,1,4,93.6357,48.4658,Town3,env3,2,drill,5.6799
12,1,4,93.6357,48.4658,Town3,env3,3,orange,3.2467
13,1,5,142.1484,69.4669,Town10,env10,1,dr strange,9.8532
14,1,5,142.1484,69.4669,Town10,env10,2,bear,46.7390
15,1,5,142.1484,69.4669,Town10,env10,3,jonney depp apple,12.8728
16,1,6,211.6618,84.6171,Town11,env11,1,emma watson,44.0618
17,1,6,211.6618,84.6171,Town11,env11,2,giraffe,6.1975
18,1,6,211.6618,84.6171,Town11,env11,3,grapes ,34.3559
19,1,7,296.3255,35.6370,Town12,env12,1,tape measure,7.3208
20,1,7,296.3255,35.6370,Town12,env12,2,taylor swift,3.3360
21,1,7,296.3255,35.6370,Town12,env12,3,puppy,24.9783
22,1,8,332.0099,23.4655,Town6,env6,1,?,21.7927
23,1,8,332.0099,23.4655,Town6,env6,2,?,0.8630
24,1,8,332.0099,23.4655,Town6,env6,3,?,0.8079
25,1,9,355.5222,22.4461,Town2,env2,1,?,20.5963
26,1,9,355.5222,22.4461,Town2,env2,2,?,0.7912
27,1,9,355.5222,22.4461,Town2,env2,3,?,1.0568
28,1,10,378.0152,4.5288,Town9,env9,1,?,3.2166
29,1,10,378.0152,4.5288,Town9,env9,2,?,0.6315
30,1,10,378.0152,4.5288,Town9,env9,3,?,0.6789
31,1,11,382.5907,9.6565,Town4,env4,1,>,6.6798
32,1,11,382.5907,9.6565,Town4,env4,2,?,2.1197
33,1,11,382.5907,9.6565,Town4,env4,3,?,0.8552
34,1,12,392.2939,2.9764,Town1,env1,1,?,1.6568
35,1,12,392.2939,2.9764,Town1,env1,2,?,0.6943
36,1,12,392.2939,2.9764,Town1,env1,3,?,0.6236
37,2,1,1.0013,144.1390,Town4,env4,1,parsons,108.2343
38,2,1,1.0013,144.1390,Town4,env4,2,giraffe ,5.3432
39,2,1,1.0013,144.1390,Town4,env4,3,drill,30.5575
40,2,2,145.1845,112.8281,Town6,env6,1,?,110.4032
41,2,2,145.1845,112.8281,Town6,env6,2,?,1.2316
42,2,2,145.1845,112.8281,Town6,env6,3,?,1.1914
43,2,3,258.0562,87.2217,Town2,env2,1,sissors,53.4796
44,2,3,258.0562,87.2217,Town2,env2,2,cucumbor ,30.7804
45,2,3,258.0562,87.2217,Town2,env2,3,zuckerberg,2.9598
46,2,4,345.3223,27.6750,Town1,env1,1,lettuce ,19.4494
47,2,4,345.3223,27.6750,Town1,env1,2,clooney,5.4796
48,2,4,345.3223,27.6750,Town1,env1,3,zebra,2.7442
49,2,5,373.0408,25.1607,Town11,env11,1,carrot,13.4477
50,2,5,373.0408,25.1607,Town11,env11,2,hammer,2.9435
51,2,5,373.0408,25.1607,Town11,env11,3,mcartney,8.7678
52,2,6,398.2453,36.5022,Town10,env10,1,duck,27.6060
53,2,6,398.2453,36.5022,Town10,env10,2,grapes,3.4391
54,2,6,398.2453,36.5022,Town10,env10,3,katy perry,5.4551
55,2,7,434.7910,47.9138,Town3,env3,1,watts,39.4257
56,2,7,434.7910,47.9138,Town3,env3,2,bear,1.5193
57,2,7,434.7910,47.9138,Town3,env3,3,screwdriver,6.9669
58,2,8,482.7500,62.4518,Town12,env12,1,apple,14.4536
59,2,8,482.7500,62.4518,Town12,env12,2,stapler,5.4313
60,2,8,482.7500,62.4518,Town12,env12,3,?,42.5650
61,2,9,545.2455,67.4698,Town8,env8,1,?,65.1661
62,2,9,545.2455,67.4698,Town8,env8,2,?,1.2706
63,2,9,545.2455,67.4698,Town8,env8,3,?,1.0312
64,2,10,612.7590,12.4872,Town7,env7,1,?,10.6709
65,2,10,612.7590,12.4872,Town7,env7,2,?,0.8544
66,2,10,612.7590,12.4872,Town7,env7,3,?,0.9600
67,2,11,625.2892,55.9453,Town9,env9,1,wrench,34.6685
68,2,11,625.2892,55.9453,Town9,env9,2,mcarntey,8.9887
69,2,11,625.2892,55.9453,Town9,env9,3,banana,12.2864
70,2,12,681.2781,25.6137,Town5,env5,1,flamigo with no head,17.4803
71,2,12,681.2781,25.6137,Town5,env5,2,watermelon,2.1286
72,2,12,681.2781,25.6137,Town5,env5,3,dr strange,6.0029
73,3,1,1.0012,138.7074,Town6,env6,1,sissors,129.5295
74,3,1,1.0012,138.7074,Town6,env6,2,cucumber,5.7975
75,3,1,1.0012,138.7074,Town6,env6,3,zukerberg,3.3763
76,3,2,139.7552,13.9212,Town12,env12,1,zoey,5.9047
77,3,2,139.7552,13.9212,Town12,env12,2,apple,3.8301
78,3,2,139.7552,13.9212,Town12,env12,3,stapler,4.1842
79,3,3,153.7237,19.4921,Town5,env5,1,dr strange,4.4322
80,3,3,153.7237,19.4921,Town5,env5,2,flamingo,2.6943
81,3,3,153.7237,19.4921,Town5,env5,3,watermelon,12.3637
82,3,4,173.2622,49.3401,Town3,env3,1,bear,42.4583
83,3,4,173.2622,49.3401,Town3,env3,2,watts,1.3685
84,3,4,173.2622,49.3401,Town3,env3,3,screwdriver,5.5115
85,3,5,222.6494,25.0351,Town4,env4,1,portman,20.7867
86,3,5,222.6494,25.0351,Town4,env4,2,aligator,3.1762
87,3,5,222.6494,25.0351,Town4,env4,3,?,1.0704
88,3,6,247.7318,25.5488,Town11,env11,1,depp,17.7075
89,3,6,247.7318,25.5488,Town11,env11,2,hammer,3.7038
90,3,6,247.7318,25.5488,Town11,env11,3,duck,4.1359
91,3,7,273.3300,23.9423,Town10,env10,1,perry,4.9738
92,3,7,273.3300,23.9423,Town10,env10,2,grapes,9.1923
93,3,7,273.3300,23.9423,Town10,env10,3,katty perry,9.7745
94,3,8,297.3189,29.8960,Town2,env2,1,saw ,26.2707
95,3,8,297.3189,29.8960,Town2,env2,2,portman,1.9204
96,3,8,297.3189,29.8960,Town2,env2,3,?,1.7030
97,3,9,327.2618,32.7607,Town7,env7,1,Sheldon,23.4639
98,3,9,327.2618,32.7607,Town7,env7,2,screwdriver,6.7354
99,3,9,327.2618,32.7607,Town7,env7,3,giraffe,2.5595
100,3,10,360.0694,28.9399,Town9,env9,1,wrench,14.7321
101,3,10,360.0694,28.9399,Town9,env9,2,Macartney,9.8470
102,3,10,360.0694,28.9399,Town9,env9,3,banana,4.3591
103,3,11,389.0558,32.9548,Town8,env8,1,clooney,13.4693
104,3,11,389.0558,32.9548,Town8,env8,2,beyonce,16.8767
105,3,11,389.0558,32.9548,Town8,env8,3,orange,2.6069
106,3,12,422.0576,24.3389,Town1,env1,1,lettuce,21.4767
107,3,12,422.0576,24.3389,Town1,env1,2,zebra,1.7021
108,3,12,422.0576,24.3389,Town1,env1,3,?,1.1582
109,4,1,1.0017,18.2604,Town9,env9,1,wrench,6.7140
110,4,1,1.0017,18.2604,Town9,env9,2,mcartney,5.0873
111,4,1,1.0017,18.2604,Town9,env9,3,banana,6.4552
112,4,2,19.3181,87.9735,Town11,env11,1,carrot ,84.5726
113,4,2,19.3181,87.9735,Town11,env11,2,hammer ,1.8634
114,4,2,19.3181,87.9735,Town11,env11,3,depp,1.5355
115,4,3,107.3478,57.0431,Town1,env1,1,lettuce,31.7968
116,4,3,107.3478,57.0431,Town1,env1,2,zebra,19.0767
117,4,3,107.3478,57.0431,Town1,env1,3,clooney,6.1677
118,4,4,164.4464,77.1714,Town6,env6,1,cow,67.6987
119,4,4,164.4464,77.1714,Town6,env6,2,swift,1.7196
120,4,4,164.4464,77.1714,Town6,env6,3,tape mesure,7.7512
121,4,5,241.6732,40.8068,Town10,env10,1,grapes,3.5922
122,4,5,241.6732,40.8068,Town10,env10,2,perry,7.4088
123,4,5,241.6732,40.8068,Town10,env10,3,duck,29.8037
124,4,6,282.5361,26.3167,Town8,env8,1,parsons,21.4605
125,4,6,282.5361,26.3167,Town8,env8,2,drill,2.2707
126,4,6,282.5361,26.3167,Town8,env8,3,giraffe,2.5837
127,4,7,308.9084,30.2357,Town4,env4,1,saw,3.5190
128,4,7,308.9084,30.2357,Town4,env4,2,alligator,25.3387
129,4,7,308.9084,30.2357,Town4,env4,3,?,1.3763
130,4,8,339.1997,18.4744,Town3,env3,1,screwdriver,12.0747
131,4,8,339.1997,18.4744,Town3,env3,2,wattson,2.5106
132,4,8,339.1997,18.4744,Town3,env3,3,?,3.8873
133,4,9,357.7299,24.8144,Town12,env12,1,apple,20.6455
134,4,9,357.7299,24.8144,Town12,env12,2,stapler,2.1834
135,4,9,357.7299,24.8144,Town12,env12,3,zoey,1.9835
136,4,10,382.6000,12.1747,Town5,env5,1,dr strange,4.2066
137,4,10,382.6000,12.1747,Town5,env5,2,watermelon,2.2000
138,4,10,382.6000,12.1747,Town5,env5,3,pink flamingo with no head,5.7663
139,4,11,394.8310,51.1023,Town7,env7,1,drill,39.7721
140,4,11,394.8310,51.1023,Town7,env7,2,giraffe,7.0168
141,4,11,394.8310,51.1023,Town7,env7,3,sheldon,4.3116
142,4,12,445.9890,14.3117,Town2,env2,1,zukerberg,6.5827
143,4,12,445.9890,14.3117,Town2,env2,2,sissors,4.9916
144,4,12,445.9890,14.3117,Town2,env2,3,cucumber,2.7358
145,5,1,1.0016,20.9984,Town8,env8,1,beoncye,12.9961
146,5,1,1.0016,20.9984,Town8,env8,2,orange,2.6617
147,5,1,1.0016,20.9984,Town8,env8,3,headless puppy,5.3365
148,5,2,22.0435,111.4113,Town6,env6,1,Taylor swift,105.5061
149,5,2,22.0435,111.4113,Town6,env6,2,tapemeasure,5.1842
150,5,2,22.0435,111.4113,Town6,env6,3,cow,0.7191
151,5,3,133.4980,18.3564,Town12,env12,1,stapler,15.2360
152,5,3,133.4980,18.3564,Town12,env12,2,apple ,1.9598
153,5,3,133.4980,18.3564,Town12,env12,3,zoey,1.1587
154,5,4,151.8984,37.2868,Town4,env4,1,aligator,26.2951
155,5,4,151.8984,37.2868,Town4,env4,2,portman,5.6850
156,5,4,151.8984,37.2868,Town4,env4,3,saw,5.3047
157,5,5,189.2292,18.2760,Town2,env2,1,zuckerberg,6.3556
158,5,5,189.2292,18.2760,Town2,env2,2,sissors,7.5505
159,5,5,189.2292,18.2760,Town2,env2,3,cucumber,4.3676
160,5,6,207.5486,41.1482,Town10,env10,1,katty perry,19.5301
161,5,6,207.5486,41.1482,Town10,env10,2,?,19.5934
162,5,6,207.5486,41.1482,Town10,env10,3,?,2.0228
163,5,7,248.7400,45.0722,Town11,env11,1,portman,42.5181
164,5,7,248.7400,45.0722,Town11,env11,2,?,1.8637
165,5,7,248.7400,45.0722,Town11,env11,3,?,0.6886
166,5,8,293.8562,17.4264,Town3,env3,1,zuckerberg,12.6508
167,5,8,293.8562,17.4264,Town3,env3,2,cucumber ,3.2710
168,5,8,293.8562,17.4264,Town3,env3,3,sissors,1.5027
169,5,9,311.3264,18.1322,Town7,env7,1,sheldon,12.6604
170,5,9,311.3264,18.1322,Town7,env7,2,giraffe,3.8634
171,5,9,311.3264,18.1322,Town7,env7,3,drill,1.6067
172,5,10,329.5018,12.0695,Town1,env1,1,mcarntey,7.6842
173,5,10,329.5018,12.0695,Town1,env1,2,wrench,2.5036
174,5,10,329.5018,12.0695,Town1,env1,3,bannana,1.8799
175,5,11,341.6149,18.8110,Town9,env9,1,wrench,9.6667
176,5,11,341.6149,18.8110,Town9,env9,2,banana,4.9355
177,5,11,341.6149,18.8110,Town9,env9,3,mcartney,4.2070
178,5,12,360.4696,19.8862,Town5,env5,1,dr strange,5.7870
179,5,12,360.4696,19.8862,Town5,env5,2,watermelon,9.6099
180,5,12,360.4696,19.8862,Town5,env5,3,pink flamingo,4.4874
