index,run,trial,onset,duration,town,pic,itemNum,resp,respRT,itemType,acc22,1,8,172.4764,3.7739,Town1,env1,1,?,2.0527,face,023,1,8,172.4764,3.7739,Town1,env1,2,?,0.8399,animal,024,1,8,172.4764,3.7739,Town1,env1,3,/,0.8793,fruitveg,052,2,6,79.3257,25.8574,Town1,env1,1,that famous bachelor who was on er,14.7272,face,153,2,6,79.3257,25.8574,Town1,env1,2,swan,9.5689,animal,054,2,6,79.3257,25.8574,Town1,env1,3,dog,1.5595,fruitveg,094,3,8,193.6636,28.5285,Town1,env1,1,paul maccartney,12.0616,face,095,3,8,193.6636,28.5285,Town1,env1,2,stapler,12.6502,fruitveg,096,3,8,193.6636,28.5285,Town1,env1,3,ostrich,3.815,animal,0124,4,6,155.2013,42.3859,Town1,env1,1,apple,23.3433,fruitveg,0125,4,6,155.2013,42.3859,Town1,env1,2,alligator,7.9694,animal,0126,4,6,155.2013,42.3859,Town1,env1,3,paul maccartney,11.0713,face,0163,5,7,162.3339,23.2221,Town1,env1,1,emma watson,9.794,face,0164,5,7,162.3339,23.2221,Town1,env1,2,dog,8.8436,animal,0165,5,7,162.3339,23.2221,Town1,env1,3,grapes,4.5825,fruitveg,04,1,2,27.3929,28.8738,Town10,env10,1,black haired man,15.4244,face,05,1,2,27.3929,28.8738,Town10,env10,2,power drill,9.8391,animal,06,1,2,27.3929,28.8738,Town10,env10,3,?,3.6084,fruitveg,067,2,11,162.5972,10.5099,Town10,env10,1,beyonce,4.6772,face,068,2,11,162.5972,10.5099,Town10,env10,2,stapler,3.6476,animal,069,2,11,162.5972,10.5099,Town10,env10,3,apples,2.1832,fruitveg,085,3,5,103.5883,31.874,Town10,env10,1,orange,9.8544,fruitveg,086,3,5,103.5883,31.874,Town10,env10,2,taylor swift,5.1906,face,087,3,5,103.5883,31.874,Town10,env10,3,scissors,16.8272,animal,0109,4,1,1.002,36.8632,Town10,env10,1,?,10.8127,animal,0110,4,1,1.002,36.8632,Town10,env10,2,katy perry,22.6556,face,1111,4,1,1.002,36.8632,Town10,env10,3,scissors,3.3911,fruitveg,0145,5,1,1.0013,21.574,Town10,env10,1,apple,11.8027,fruitveg,0146,5,1,1.0013,21.574,Town10,env10,2,benedict cumberland,8.4149,face,0147,5,1,1.0013,21.574,Town10,env10,3,?,1.3524,animal,028,1,10,220.5071,20.1887,Town11,env11,1,black haired man,12.8435,face,029,1,10,220.5071,20.1887,Town11,env11,2,dog,3.3033,fruitveg,030,1,10,220.5071,20.1887,Town11,env11,3,power dril,4.0401,tool,064,2,10,148.3004,14.255,Town11,env11,1,benedict,9.6378,face,065,2,10,148.3004,14.255,Town11,env11,2,orange,2.2708,fruitveg,066,2,10,148.3004,14.255,Town11,env11,3,bear,2.3447,tool,097,3,9,222.2347,27.8143,Town11,env11,1,?,15.684,fruitveg,098,3,9,222.2347,27.8143,Town11,env11,2,?,2.7679,tool,099,3,9,222.2347,27.8143,Town11,env11,3,sherlock holmes,9.3607,face,0142,4,12,300.239,18.4219,Town11,env11,1,cat,10.4519,fruitveg,0143,4,12,300.239,18.4219,Town11,env11,2,?,3.3769,tool,0144,4,12,300.239,18.4219,Town11,env11,3,johhny depp,4.591,face,1160,5,6,139.3786,22.9097,Town11,env11,1,horse,11.7848,fruitveg,0161,5,6,139.3786,22.9097,Town11,env11,2,johnny depp,5.7354,face,1162,5,6,139.3786,22.9097,Town11,env11,3,saw,5.3877,tool,031,1,11,240.7372,12.4114,Town12,env12,1,?,6.1943,face,032,1,11,240.7372,12.4114,Town12,env12,2,power drill,4.9995,tool,033,1,11,240.7372,12.4114,Town12,env12,3,?,1.2159,fruitveg,049,2,5,64.5989,14.6856,Town12,env12,1,paul maccarthy,10.9575,face,050,2,5,64.5989,14.6856,Town12,env12,2,?,2.7189,tool,051,2,5,64.5989,14.6856,Town12,env12,3,?,1.0075,fruitveg,0106,3,12,295.6441,41.8854,Town12,env12,1,orange,32.0358,fruitveg,0107,3,12,295.6441,41.8854,Town12,env12,2,?,0.8306,tool,0108,3,12,295.6441,41.8854,Town12,env12,3,beyonce,9.0169,face,0118,4,4,105.405,23.378,Town12,env12,1,katy perry,14.0414,face,0119,4,4,105.405,23.378,Town12,env12,2,orange,2.807,fruitveg,0120,4,4,105.405,23.378,Town12,env12,3,stapler,6.5276,tool,1151,5,3,39.4136,38.3084,Town12,env12,1,alligator,13.4213,tool,0152,5,3,39.4136,38.3084,Town12,env12,2,grapes,17.5887,fruitveg,0153,5,3,39.4136,38.3084,Town12,env12,3,paul maccartney,7.2965,face,025,1,9,176.2913,44.1746,Town2,env2,1,johnny deep,29.4137,face,026,1,9,176.2913,44.1746,Town2,env2,2,carrot,9.1771,fruitveg,027,1,9,176.2913,44.1746,Town2,env2,3,cat,5.582,tool,058,2,8,118.8319,11.4508,Town2,env2,1,zooey,3.5277,face,059,2,8,118.8319,11.4508,Town2,env2,2,apple,5.9135,fruitveg,060,2,8,118.8319,11.4508,Town2,env2,3,cat,2.0077,tool,091,3,7,164.4983,29.1248,Town2,env2,1,cat,16.5995,tool,092,3,7,164.4983,29.1248,Town2,env2,2,george clooney,6.8308,face,093,3,7,164.4983,29.1248,Town2,env2,3,gape,5.6926,fruitveg,0136,4,10,264.4061,16.5216,Town2,env2,1,cucumbers,9.4558,fruitveg,1137,4,10,264.4061,16.5216,Town2,env2,2,mark zuchenberg,5.2956,face,1138,4,10,264.4061,16.5216,Town2,env2,3,/,1.7683,tool,0175,5,11,275.6618,18.2292,Town2,env2,1,lettuce,12.9653,fruitveg,0176,5,11,275.6618,18.2292,Town2,env2,2,katy perry,3.0458,face,0177,5,11,275.6618,18.2292,Town2,env2,3,?,2.2162,tool,010,1,4,93.3465,5.2233,Town3,env3,1,?,2.8465,face,011,1,4,93.3465,5.2233,Town3,env3,2,?,1.1677,animal,012,1,4,93.3465,5.2233,Town3,env3,3,?,1.2073,tool,037,2,1,1.002,16.7098,Town3,env3,1,katty perry,8.4191,face,038,2,1,1.002,16.7098,Town3,env3,2,orange,3.6857,animal,039,2,1,1.002,16.7098,Town3,env3,3,scissors,4.6005,tool,073,3,1,1.0012,27.7107,Town3,env3,1,apple,8.8394,animal,074,3,1,1.0012,27.7107,Town3,env3,2,johhny depp,15.3306,face,075,3,1,1.0012,27.7107,Town3,env3,3,scissors,3.5365,tool,0139,4,11,280.9692,19.2269,Town3,env3,1,orange,9.2588,tool,0140,4,11,280.9692,19.2269,Town3,env3,2,zooey,2.0226,face,0141,4,11,280.9692,19.2269,Town3,env3,3,alligator,7.9438,animal,0178,5,12,293.9371,21.7782,Town3,env3,1,dog,18.0503,animal,0179,5,12,293.9371,21.7782,Town3,env3,2,zooey,2.5102,face,0180,5,12,293.9371,21.7782,Town3,env3,3,?,1.2159,tool,019,1,7,158.0874,14.3474,Town4,env4,1,benedict,3.4464,face,020,1,7,158.0874,14.3474,Town4,env4,2,stapler,8.5554,tool,021,1,7,158.0874,14.3474,Town4,env4,3,?,2.3436,animal,046,2,4,45.2883,19.2694,Town4,env4,1,beyonce,3.7254,face,047,2,4,45.2883,19.2694,Town4,env4,2,cucumber,11.878,tool,048,2,4,45.2883,19.2694,Town4,env4,3,banana,3.6642,animal,0103,3,11,267.1659,28.4363,Town4,env4,1,cucumbers,12.9583,tool,0104,3,11,267.1659,28.4363,Town4,env4,2,bear,8.3248,animal,0105,3,11,267.1659,28.4363,Town4,env4,3,mark zuckerberg,7.1514,face,0115,4,3,67.7422,37.6167,Town4,env4,1,?,19.9678,tool,0116,4,3,67.7422,37.6167,Town4,env4,2,bear,1.9361,animal,0117,4,3,67.7422,37.6167,Town4,env4,3,benedict cumb...sherlock holmes,15.7109,face,0172,5,10,251.5849,24.0314,Town4,env4,1,mark zuckerberg ,9.8426,face,0173,5,10,251.5849,24.0314,Town4,env4,2,power drill,4.9357,tool,0174,5,10,251.5849,24.0314,Town4,env4,3,?,9.2513,animal,01,1,1,1.0024,26.3491,Town5,env5,1,zooey,17.0499,face,02,1,1,1.0024,26.3491,Town5,env5,2,carrot,3.2231,fruitveg,03,1,1,1.0024,26.3491,Town5,env5,3,bear,6.0722,animal,040,2,2,17.7528,14.1579,Town5,env5,1,johnny depp,9.4457,face,041,2,2,17.7528,14.1579,Town5,env5,2,apple,3.2232,fruitveg,042,2,2,17.7528,14.1579,Town5,env5,3,lettuce,1.487,animal,088,3,6,135.5047,28.9529,Town5,env5,1,emma watson,6.8446,face,089,3,6,135.5047,28.9529,Town5,env5,2,tomato,19.5631,fruitveg,090,3,6,135.5047,28.9529,Town5,env5,3,dog,2.5433,animal,0133,4,9,248.7829,15.5815,Town5,env5,1,?,6.0843,face,0134,4,9,248.7829,15.5815,Town5,env5,2,grapes,5.4954,fruitveg,0135,4,9,248.7829,15.5815,Town5,env5,3,saw,4,animal,0148,5,2,22.6209,16.7476,Town5,env5,1,power drill,11.0987,fruitveg,0149,5,2,22.6209,16.7476,Town5,env5,2,katy perry,3.0631,face,0150,5,2,22.6209,16.7476,Town5,env5,3,dog,2.5839,animal,016,1,6,131.1148,26.9315,Town6,env6,1,?,9.0217,face,017,1,6,131.1148,26.9315,Town6,env6,2,flower,10.957,tool,018,1,6,131.1148,26.9315,Town6,env6,3,alligator,6.9508,animal,055,2,7,105.2246,13.5664,Town6,env6,1,dog,2.7971,animal,056,2,7,105.2246,13.5664,Town6,env6,2,stapler,5.0396,tool,057,2,7,105.2246,13.5664,Town6,env6,3,paul macharthy,5.728,face,079,3,3,50.6991,35.2428,Town6,env6,1,grapes,25.0296,animal,080,3,3,50.6991,35.2428,Town6,env6,2,sheldon,5.396,face,081,3,3,50.6991,35.2428,Town6,env6,3,orange,4.8155,tool,0130,4,8,230.8506,17.89,Town6,env6,1,zooey,7.7854,face,0131,4,8,230.8506,17.89,Town6,env6,2,cucumber,6.3592,tool,0132,4,8,230.8506,17.89,Town6,env6,3,dog,3.7437,animal,0154,5,4,77.7672,43.0241,Town6,env6,1,bear,26.3148,animal,0155,5,4,77.7672,43.0241,Town6,env6,2,sheldon,5.5994,face,0156,5,4,77.7672,43.0241,Town6,env6,3,orange,11.108,tool,07,1,3,56.3078,36.9975,Town7,env7,1,beyonce,5.9917,face,08,1,3,56.3078,36.9975,Town7,env7,2,stapler,6.584,tool,09,1,3,56.3078,36.9975,Town7,env7,3,swan,24.42,animal,061,2,9,130.324,17.9357,Town7,env7,1,taylor swift,4.7738,face,062,2,9,130.324,17.9357,Town7,env7,2,oranges,4.3836,tool,063,2,9,130.324,17.9357,Town7,env7,3,girrafe,8.7764,animal,176,3,2,28.755,21.9035,Town7,env7,1,bear,12.9993,animal,077,3,2,28.755,21.9035,Town7,env7,2,katy perry,6.2716,face,078,3,2,28.755,21.9035,Town7,env7,3,apple,2.6309,tool,0112,4,2,37.9072,29.793,Town7,env7,1,apples,10.0344,tool,0113,4,2,37.9072,29.793,Town7,env7,2,alligator,3.0713,animal,0114,4,2,37.9072,29.793,Town7,env7,3,?,16.6856,face,0166,5,8,185.6025,45.458,Town7,env7,1,?,19.9785,face,0167,5,8,185.6025,45.458,Town7,env7,2,?,20.5819,tool,0168,5,8,185.6025,45.458,Town7,env7,3,cat,4.8957,animal,013,1,5,98.6129,32.4609,Town8,env8,1,big bang guy,13.491,face,014,1,5,98.6129,32.4609,Town8,env8,2,duck,10.8785,animal,015,1,5,98.6129,32.4609,Town8,env8,3,hammer,8.0897,fruitveg,043,2,3,31.9514,13.2959,Town8,env8,1,that girl from harry potter,7.6305,face,044,2,3,31.9514,13.2959,Town8,env8,2,dog ,3.5753,animal,145,2,3,31.9514,13.2959,Town8,env8,3,alligator,2.0881,fruitveg,0100,3,10,250.0898,17.0357,Town8,env8,1,?,5.3289,animal,0101,3,10,250.0898,17.0357,Town8,env8,2,orange,6.9774,fruitveg,1102,3,10,250.0898,17.0357,Town8,env8,3,katy perry,4.7276,face,0127,4,7,197.6289,33.1802,Town8,env8,1,dog,7.2929,animal,1128,4,7,197.6289,33.1802,Town8,env8,2,beyonce,5.3021,face,1129,4,7,197.6289,33.1802,Town8,env8,3,?,20.5834,fruitveg,0169,5,9,231.1058,20.4333,Town8,env8,1,orange,14.7462,fruitveg,1170,5,9,231.1058,20.4333,Town8,env8,2,emma watson,3.7023,face,0171,5,9,231.1058,20.4333,Town8,env8,3,/,1.9831,animal,034,1,12,253.1898,12.6165,Town9,env9,1,beyonce,6.7026,face,035,1,12,253.1898,12.6165,Town9,env9,2,bear,4.1362,fruitveg,036,1,12,253.1898,12.6165,Town9,env9,3,?,1.7759,tool,070,2,12,173.1482,12.9839,Town9,env9,1,lettuce,9.4867,fruitveg,071,2,12,173.1482,12.9839,Town9,env9,2,dog,1.8475,tool,072,2,12,173.1482,12.9839,Town9,env9,3,paul,1.6479,face,182,3,4,85.9825,17.5654,Town9,env9,1,stapler,9.1244,tool,083,3,4,85.9825,17.5654,Town9,env9,2,?,1.3192,fruitveg,084,3,4,85.9825,17.5654,Town9,env9,3,paul maccartey,7.1198,face,1121,4,5,128.8248,26.334,Town9,env9,1,george clooney,14.4295,face,0122,4,5,128.8248,26.334,Town9,env9,2,power drill,5.2313,tool,0123,4,5,128.8248,26.334,Town9,env9,3,ostrich,6.6714,fruitveg,0157,5,5,120.8374,18.4953,Town9,env9,1,?,4.8088,fruitveg,0158,5,5,120.8374,18.4953,Town9,env9,2,beyonce,4.6063,face,0159,5,5,120.8374,18.4953,Town9,env9,3,?,9.0783,tool,0