index,run,trial,onset,duration,town,pic,itemNum,resp,respRT,itemType,acc1,1,1,1.0012,56.6359,Town10,env10,1,?,43.0403,face,02,1,1,1.0012,56.6359,Town10,env10,2,?,12.7132,animal,03,1,1,1.0012,56.6359,Town10,env10,3,?,0.8785,fruitveg,04,1,2,57.6831,30.8135,Town12,env12,1,deschanel,23.4617,face,15,1,2,57.6831,30.8135,Town12,env12,2,stapler,2.2075,tool,16,1,2,57.6831,30.8135,Town12,env12,3,apple,5.1425,fruitveg,17,1,3,88.5438,28.4297,Town7,env7,1,?,26.3102,face,08,1,3,88.5438,28.4297,Town7,env7,2,?,1.3744,animal,09,1,3,88.5438,28.4297,Town7,env7,3,?,0.7433,tool,010,1,4,117.0203,85.1451,Town2,env2,1,zuckerberg,77.8803,face,111,1,4,117.0203,85.1451,Town2,env2,2,cucumber,5.1518,fruitveg,112,1,4,117.0203,85.1451,Town2,env2,3,scissors,2.1111,tool,113,1,5,202.2122,27.1781,Town5,env5,1,bananas,12.9873,face,014,1,5,202.2122,27.1781,Town5,env5,2,beyonce,4.9189,animal,015,1,5,202.2122,27.1781,Town5,env5,3,?,9.2699,fruitveg,016,1,6,229.4379,26.1198,Town11,env11,1,drill,11.2755,tool,017,1,6,229.4379,26.1198,Town11,env11,2,depp,7.7564,face,118,1,6,229.4379,26.1198,Town11,env11,3,dog,7.086,fruitveg,019,1,7,255.6046,11.8505,Town3,env3,1,?,10.3625,face,020,1,7,255.6046,11.8505,Town3,env3,2,?,0.7588,animal,021,1,7,255.6046,11.8505,Town3,env3,3,?,0.7273,tool,022,1,8,267.5019,43.7956,Town8,env8,1,duck,8.9491,face,023,1,8,267.5019,43.7956,Town8,env8,2,?,31.0367,animal,024,1,8,267.5019,43.7956,Town8,env8,3,?,3.8079,fruitveg,025,1,9,311.3443,66.1229,Town9,env9,1,?,64.8331,face,026,1,9,311.3443,66.1229,Town9,env9,2,?,0.5925,fruitveg,027,1,9,311.3443,66.1229,Town9,env9,3,?,0.6954,tool,028,1,10,377.5146,33.3788,Town4,env4,1,taylor swift,19.05,face,029,1,10,377.5146,33.3788,Town4,env4,2,bear,3.6077,animal,030,1,10,377.5146,33.3788,Town4,env4,3,?,10.7194,tool,031,1,11,410.9407,32.2118,Town6,env6,1,?,30.9068,face,032,1,11,410.9407,32.2118,Town6,env6,2,?,0.6228,animal,033,1,11,410.9407,32.2118,Town6,env6,3,?,0.6804,tool,034,1,12,443.1995,11.6276,Town1,env1,1,?,10.4899,face,035,1,12,443.1995,11.6276,Town1,env1,2,?,0.5674,animal,036,1,12,443.1995,11.6276,Town1,env1,3,?,0.5686,fruitveg,037,2,1,1.0012,33.4446,Town4,env4,1,natalie portman,18.0123,face,138,2,1,1.0012,33.4446,Town4,env4,2,bear,14.5484,animal,039,2,1,1.0012,33.4446,Town4,env4,3,saw,0.8798,tool,140,2,2,34.4955,29.087,Town3,env3,1,emma watson,21.1034,face,141,2,2,34.4955,29.087,Town3,env3,2,bear,4.1823,animal,142,2,2,34.4955,29.087,Town3,env3,3,screwdriver,3.7995,tool,143,2,3,63.632,9.9826,Town12,env12,1,deschanel,5.431,face,144,2,3,63.632,9.9826,Town12,env12,2,apple,2.6234,fruitveg,145,2,3,63.632,9.9826,Town12,env12,3,stapler,1.9263,tool,146,2,4,73.6644,41.3646,Town9,env9,1,mccartney,16.0794,face,147,2,4,73.6644,41.3646,Town9,env9,2,?,24.652,fruitveg,048,2,4,73.6644,41.3646,Town9,env9,3,?,0.6311,tool,049,2,5,115.0792,28.3248,Town6,env6,1,taylor swift,7.397,face,150,2,5,115.0792,28.3248,Town6,env6,2,cow,2.4234,animal,151,2,5,115.0792,28.3248,Town6,env6,3,drill,18.5025,tool,052,2,6,143.4545,20.5098,Town10,env10,1,grapes,4.7897,fruitveg,153,2,6,143.4545,20.5098,Town10,env10,2,katy perry,3.2231,face,154,2,6,143.4545,20.5098,Town10,env10,3,drill,12.4952,animal,055,2,7,164.0138,11.8751,Town1,env1,1,lettuce,3.0531,fruitveg,156,2,7,164.0138,11.8751,Town1,env1,2,zebra,5.8535,animal,157,2,7,164.0138,11.8751,Town1,env1,3,clooney,2.9667,face,158,2,8,175.9383,28.0671,Town7,env7,1,sheldon,6.2864,face,159,2,8,175.9383,28.0671,Town7,env7,2,?,21.1796,animal,060,2,8,175.9383,28.0671,Town7,env7,3,?,0.5993,tool,061,2,9,204.0546,40.6056,Town5,env5,1,benedict cumberbatch,11.2473,face,162,2,9,204.0546,40.6056,Town5,env5,2,?,28.6372,animal,063,2,9,204.0546,40.6056,Town5,env5,3,?,0.7192,fruitveg,064,2,10,244.709,17.5049,Town11,env11,1,depp,13.7432,face,165,2,10,244.709,17.5049,Town11,env11,2,?,2.6634,fruitveg,066,2,10,244.709,17.5049,Town11,env11,3,?,1.0965,tool,067,2,11,262.2631,15.6468,Town2,env2,1,?,14.3827,face,068,2,11,262.2631,15.6468,Town2,env2,2,?,0.64,fruitveg,069,2,11,262.2631,15.6468,Town2,env2,3,?,0.6224,tool,070,2,12,277.9595,36.6082,Town8,env8,1,beyonce,2.4938,face,171,2,12,277.9595,36.6082,Town8,env8,2,dog,3.2878,animal,172,2,12,277.9595,36.6082,Town8,env8,3,?,30.8249,fruitveg,073,3,1,1.0022,20.5391,Town7,env7,1,sheldon,8.4646,face,174,3,1,1.0022,20.5391,Town7,env7,2,giraffe,10.7502,animal,175,3,1,1.0022,20.5391,Town7,env7,3,drill,1.3202,tool,176,3,2,21.8776,5.8952,Town10,env10,1,katy perry,2.9178,face,177,3,2,21.8776,5.8952,Town10,env10,2,grapes,1.911,fruitveg,178,3,2,21.8776,5.8952,Town10,env10,3,duck,1.0645,animal,179,3,3,27.8144,13.6056,Town5,env5,1,benedict cumberbatch,5.9486,face,180,3,3,27.8144,13.6056,Town5,env5,2,flamingo,3.4642,animal,181,3,3,27.8144,13.6056,Town5,env5,3,watermellon,4.191,fruitveg,182,3,4,41.4616,12.7351,Town6,env6,1,taylor swift,6.0545,face,183,3,4,41.4616,12.7351,Town6,env6,2,cow,1.0062,animal,184,3,4,41.4616,12.7351,Town6,env6,3,tape measure,5.6725,tool,185,3,5,54.2385,10.5978,Town4,env4,1,natalie portman,4.5723,face,186,3,5,54.2385,10.5978,Town4,env4,2,saw,3.0007,tool,187,3,5,54.2385,10.5978,Town4,env4,3,crocodile,3.0229,animal,188,3,6,64.8786,5.9509,Town8,env8,1,beyonce,2.3015,face,189,3,6,64.8786,5.9509,Town8,env8,2,dog,1.2226,animal,190,3,6,64.8786,5.9509,Town8,env8,3,oranges,2.4246,fruitveg,191,3,7,70.872,9.3886,Town9,env9,1,paul mccartney,4.1227,face,192,3,7,70.872,9.3886,Town9,env9,2,bananas,3.0076,fruitveg,193,3,7,70.872,9.3886,Town9,env9,3,wrench,2.2566,tool,194,3,8,80.3024,10.757,Town3,env3,1,emma watson,4.3165,face,195,3,8,80.3024,10.757,Town3,env3,2,bear,1.0726,animal,196,3,8,80.3024,10.757,Town3,env3,3,screwdriver,5.366,tool,197,3,9,91.1036,12.6869,Town2,env2,1,zuckerberg,7.9268,face,198,3,9,91.1036,12.6869,Town2,env2,2,cucumber,3.2714,fruitveg,199,3,9,91.1036,12.6869,Town2,env2,3,scissors,1.4869,tool,1100,3,10,103.8323,8.0471,Town1,env1,1,lettuce,4.7499,fruitveg,1101,3,10,103.8323,8.0471,Town1,env1,2,zebra,1.8163,animal,1102,3,10,103.8323,8.0471,Town1,env1,3,clooney,1.479,face,1103,3,11,111.921,10.7026,Town12,env12,1,zooey deschanel,5.5014,face,1104,3,11,111.921,10.7026,Town12,env12,2,stapler,3.7509,tool,1105,3,11,111.921,10.7026,Town12,env12,3,apple,1.4484,fruitveg,1106,3,12,122.6652,13.1242,Town11,env11,1,depp,3.0699,face,1107,3,12,122.6652,13.1242,Town11,env11,2,carrot,2.03,fruitveg,1108,3,12,122.6652,13.1242,Town11,env11,3,hammer,8.0222,tool,1109,4,1,1.0017,10.136,Town9,env9,1,paul mccartney,5.3497,face,1110,4,1,1.0017,10.136,Town9,env9,2,bananas,2.7338,fruitveg,1111,4,1,1.0017,10.136,Town9,env9,3,wrench,2.0484,tool,1112,4,2,11.1785,10.391,Town2,env2,1,mark zuckerberg,5.8621,face,1113,4,2,11.1785,10.391,Town2,env2,2,cucumber,3.1515,fruitveg,1114,4,2,11.1785,10.391,Town2,env2,3,scissors,1.3755,tool,1115,4,3,21.6101,11.2626,Town4,env4,1,natalie portman,5.5737,face,1116,4,3,21.6101,11.2626,Town4,env4,2,crocodile,3.4556,animal,1117,4,3,21.6101,11.2626,Town4,env4,3,saw,2.2316,tool,1118,4,4,32.9132,14.6399,Town5,env5,1,benedict cumberbatch,5.9265,face,1119,4,4,32.9132,14.6399,Town5,env5,2,flamingo,6.4878,animal,1120,4,4,32.9132,14.6399,Town5,env5,3,watermellon,2.2238,fruitveg,1121,4,5,47.5952,8.4456,Town6,env6,1,taylor swift,4.5886,face,1122,4,5,47.5952,8.4456,Town6,env6,2,tape measure,3.1846,tool,1123,4,5,47.5952,8.4456,Town6,env6,3,cow,0.6706,animal,1124,4,6,56.0816,7.935,Town1,env1,1,lettuce,2.6308,fruitveg,1125,4,6,56.0816,7.935,Town1,env1,2,zebra,3.4802,animal,1126,4,6,56.0816,7.935,Town1,env1,3,clooney,1.8223,face,1127,4,7,64.0574,4.5367,Town8,env8,1,beyonce,2.3751,face,1128,4,7,64.0574,4.5367,Town8,env8,2,dog,0.759,animal,1129,4,7,64.0574,4.5367,Town8,env8,3,oranges,1.4009,fruitveg,1130,4,8,68.6353,25.377,Town10,env10,1,katy perry,3.5581,face,1131,4,8,68.6353,25.377,Town10,env10,2,grapes,1.2783,fruitveg,1132,4,8,68.6353,25.377,Town10,env10,3,duck,20.5389,animal,1133,4,9,94.0535,10.5797,Town7,env7,1,sheldon,2.3336,face,1134,4,9,94.0535,10.5797,Town7,env7,2,giraffe,2.2959,animal,1135,4,9,94.0535,10.5797,Town7,env7,3,drill,5.9482,tool,1136,4,10,104.6743,10.0471,Town11,env11,1,depp,2.0709,face,1137,4,10,104.6743,10.0471,Town11,env11,2,carrot,5.5589,fruitveg,1138,4,10,104.6743,10.0471,Town11,env11,3,hammer,2.4154,tool,1139,4,11,114.7619,10.031,Town3,env3,1,emma watson,5.3264,face,1140,4,11,114.7619,10.031,Town3,env3,2,bear,1.0397,animal,1141,4,11,114.7619,10.031,Town3,env3,3,screwdriver,3.6629,tool,1142,4,12,124.8342,10.1823,Town12,env12,1,zooey deschanel,4.8381,face,1143,4,12,124.8342,10.1823,Town12,env12,2,apple,4.0385,fruitveg,1144,4,12,124.8342,10.1823,Town12,env12,3,stapler,1.3038,tool,1145,5,1,1.0015,10.4714,Town12,env12,1,zooey deschanel,5.949,face,1146,5,1,1.0015,10.4714,Town12,env12,2,apple,3.1183,fruitveg,1147,5,1,1.0015,10.4714,Town12,env12,3,stapler,1.4001,tool,1148,5,2,11.5136,11.3911,Town4,env4,1,natalie portman,5.9415,face,1149,5,2,11.5136,11.3911,Town4,env4,2,saw,3.0167,tool,1150,5,2,11.5136,11.3911,Town4,env4,3,crocodile,2.4311,animal,1151,5,3,22.9462,8.2071,Town11,env11,1,depp,2.3977,face,1152,5,3,22.9462,8.2071,Town11,env11,2,hammer,3.5677,tool,1153,5,3,22.9462,8.2071,Town11,env11,3,carrot,2.24,fruitveg,1154,5,4,31.1939,10.4946,Town3,env3,1,emma watson,4.4696,face,1155,5,4,31.1939,10.4946,Town3,env3,2,bear,1.9191,animal,1156,5,4,31.1939,10.4946,Town3,env3,3,screwdriver,4.1042,tool,1157,5,5,41.7299,11.8071,Town5,env5,1,cumberbatch,4.9496,face,1158,5,5,41.7299,11.8071,Town5,env5,2,flamingo,3.0636,animal,1159,5,5,41.7299,11.8071,Town5,env5,3,watermellon,3.7921,fruitveg,1160,5,6,53.579,9.3249,Town7,env7,1,sheldon,2.853,face,1161,5,6,53.579,9.3249,Town7,env7,2,giraffe,2.7108,animal,1162,5,6,53.579,9.3249,Town7,env7,3,drill,3.7593,tool,1163,5,7,62.9443,10.2315,Town2,env2,1,zuckerberg,3.8071,face,1164,5,7,62.9443,10.2315,Town2,env2,2,cucumber,4.5833,fruitveg,1165,5,7,62.9443,10.2315,Town2,env2,3,scissors,1.8394,tool,1166,5,8,73.2167,8.4885,Town9,env9,1,paul mccartney,3.9026,face,1167,5,8,73.2167,8.4885,Town9,env9,2,bananas,2.8798,fruitveg,1168,5,8,73.2167,8.4885,Town9,env9,3,wrench,1.7043,tool,1169,5,9,81.7466,7.0464,Town1,env1,1,clooney,3.8052,face,1170,5,9,81.7466,7.0464,Town1,env1,2,lettuce,1.9358,fruitveg,1171,5,9,81.7466,7.0464,Town1,env1,3,zebra,1.3036,animal,1172,5,10,88.8344,7.9414,Town6,env6,1,taylor swift,4.67,face,1173,5,10,88.8344,7.9414,Town6,env6,2,cow,1.1106,animal,1174,5,10,88.8344,7.9414,Town6,env6,3,tape measure,2.1591,tool,1175,5,11,96.8164,8.4958,Town8,env8,1,beyonce,2.7757,face,1176,5,11,96.8164,8.4958,Town8,env8,2,dog,0.9917,animal,1177,5,11,96.8164,8.4958,Town8,env8,3,oranges,4.7266,fruitveg,1178,5,12,105.3536,5.7516,Town10,env10,1,katy perry,2.0708,face,1179,5,12,105.3536,5.7516,Town10,env10,2,duck,1.3429,animal,1180,5,12,105.3536,5.7516,Town10,env10,3,grapes,2.3361,fruitveg,1