index,run,trial,onset,duration,cond,rep,resp,acc,respRT,ISIresp,ISIacc,ISIrespRT
1,1,1,12.0040,1.5977,tool,0,NR,0,999.0000,NR,0,999.0000
2,1,2,13.6033,1.5980,tool,0,NR,0,999.0000,0,1,0.9549
3,1,3,15.2015,1.5995,tool,0,NR,0,999.0000,0,1,0.3456
4,1,4,16.8012,1.5994,tool,0,NR,0,999.0000,0,1,0.1913
5,1,5,18.4007,1.5994,tool,0,NR,0,999.0000,0,1,0.0046
6,1,6,20.0003,1.6007,tool,1,NR,0,999.0000,1,1,0.2440
7,1,7,21.6012,1.5989,tool,0,NR,0,999.0000,0,1,0.4062
8,1,8,23.2003,1.6001,tool,1,NR,0,999.0000,1,1,0.1286
9,1,9,24.8006,1.5999,tool,0,NR,0,999.0000,0,1,0.4947
10,1,10,26.4008,1.5995,tool,1,NR,0,999.0000,0,0,0.5313
11,1,11,28.0174,9.9832,rest,0,NR,1,999.0000,NR,1,0.0000
12,1,12,38.0008,1.6002,face,0,NR,0,999.0000,1,0,0.3922
13,1,13,39.6012,1.5993,face,0,NR,0,999.0000,0,1,0.4719
14,1,14,41.2007,1.6003,face,1,NR,0,999.0000,1,1,0.7152
15,1,15,42.8012,1.5995,face,0,NR,0,999.0000,0,1,0.3604
16,1,16,44.4009,1.6002,face,0,NR,0,999.0000,0,1,0.1577
17,1,17,46.0013,1.5993,face,1,NR,0,999.0000,0,0,0.1561
18,1,18,47.6007,1.6004,face,0,NR,0,999.0000,0,1,0.1060
19,1,19,49.2013,1.5996,face,1,NR,0,999.0000,NR,0,999.0000
20,1,20,50.8011,1.5999,face,0,NR,0,999.0000,0,1,0.1757
21,1,21,52.4012,1.5990,face,0,NR,0,999.0000,0,1,0.0158
22,1,22,54.0179,9.9830,rest,0,NR,1,999.0000,NR,1,0.0000
23,1,23,64.0011,1.5991,virtualtown,0,NR,0,999.0000,0,1,0.3105
24,1,24,65.6004,1.6008,virtualtown,0,NR,0,999.0000,0,1,0.3464
25,1,25,67.2015,1.5994,virtualtown,1,NR,0,999.0000,1,1,0.2355
26,1,26,68.8011,1.5997,virtualtown,0,NR,0,999.0000,0,1,0.2386
27,1,27,70.4010,1.6003,virtualtown,1,NR,0,999.0000,1,1,0.5697
28,1,28,72.0015,1.5990,virtualtown,0,NR,0,999.0000,0,1,0.4335
29,1,29,73.6007,1.6007,virtualtown,0,NR,0,999.0000,0,1,0.3453
30,1,30,75.2015,1.5991,virtualtown,0,NR,0,999.0000,0,1,0.2968
31,1,31,76.8008,1.6001,virtualtown,0,NR,0,999.0000,0,1,0.2532
32,1,32,78.4011,1.5994,virtualtown,1,NR,0,999.0000,1,1,0.3062
33,1,33,80.0184,9.9821,rest,0,NR,1,999.0000,NR,1,0.0000
34,1,34,90.0008,1.5997,tool,0,NR,0,999.0000,NR,0,999.0000
35,1,35,91.6007,1.6003,tool,0,NR,0,999.0000,0,1,0.3183
36,1,36,93.2012,1.5994,tool,1,NR,0,999.0000,1,1,0.2290
37,1,37,94.8008,1.5999,tool,0,NR,0,999.0000,0,1,0.1883
38,1,38,96.4009,1.5992,tool,1,NR,0,999.0000,1,1,0.1918
39,1,39,98.0003,1.6005,tool,0,NR,0,999.0000,0,1,0.1948
40,1,40,99.6010,1.5992,tool,0,NR,0,999.0000,0,1,0.1058
41,1,41,101.2004,1.6001,tool,0,NR,0,999.0000,0,1,0.0607
42,1,42,102.8007,1.6004,tool,1,NR,0,999.0000,1,1,0.2473
43,1,43,104.4012,1.5997,tool,0,NR,0,999.0000,0,1,0.2812
44,1,44,106.0191,9.9821,rest,0,NR,1,999.0000,NR,1,0.0000
45,1,45,116.0014,1.5996,virtualtown,0,NR,0,999.0000,0,1,0.2231
46,1,46,117.6012,1.5996,virtualtown,0,NR,0,999.0000,0,1,0.0196
47,1,47,119.2010,1.6000,virtualtown,1,NR,0,999.0000,1,1,0.1841
48,1,48,120.8012,1.5999,virtualtown,0,NR,0,999.0000,0,1,0.2015
49,1,49,122.4013,1.5991,virtualtown,0,NR,0,999.0000,0,1,0.1991
50,1,50,124.0006,1.5996,virtualtown,0,NR,0,999.0000,0,1,0.2117
51,1,51,125.6004,1.6006,virtualtown,0,NR,0,999.0000,0,1,0.2016
52,1,52,127.2012,1.5996,virtualtown,1,NR,0,999.0000,1,1,0.2237
53,1,53,128.8010,1.5998,virtualtown,0,NR,0,999.0000,0,1,0.1109
54,1,54,130.4010,1.5998,virtualtown,1,NR,0,999.0000,1,1,0.0849
55,1,55,132.0196,9.9806,rest,0,NR,1,999.0000,NR,1,0.0000
56,1,56,142.0004,1.6003,face,0,NR,0,999.0000,0,1,0.6270
57,1,57,143.6009,1.6006,face,0,NR,0,999.0000,0,1,0.2510
58,1,58,145.2017,1.5985,face,0,NR,0,999.0000,0,1,0.0828
59,1,59,146.8004,1.6000,face,0,0,1,0.5434,NR,0,999.0000
60,1,60,148.4006,1.6005,face,1,NR,0,999.0000,1,1,0.1335
61,1,61,150.0014,1.6002,face,0,NR,0,999.0000,0,1,0.1410
62,1,62,151.6018,1.5995,face,1,NR,0,999.0000,1,1,0.2136
63,1,63,153.2014,1.5990,face,0,NR,0,999.0000,NR,0,999.0000
64,1,64,154.8006,1.6000,face,1,NR,0,999.0000,1,1,0.0405
65,1,65,156.4009,1.5992,face,0,0,1,0.5943,NR,0,999.0000
66,1,66,158.0031,9.9970,rest,0,NR,1,999.0000,NR,1,0.0000
67,1,67,168.0003,1.6001,virtualtown,0,NR,0,999.0000,0,1,0.2980
68,1,68,169.6007,1.5996,virtualtown,0,NR,0,999.0000,0,1,0.1632
69,1,69,171.2005,1.5996,virtualtown,0,NR,0,999.0000,1,0,0.4270
70,1,70,172.8003,1.6010,virtualtown,1,NR,0,999.0000,1,1,0.2637
71,1,71,174.4015,1.5988,virtualtown,0,NR,0,999.0000,0,1,0.1933
72,1,72,176.0005,1.6008,virtualtown,0,NR,0,999.0000,0,1,0.0422
73,1,73,177.6015,1.5996,virtualtown,1,NR,0,999.0000,1,1,0.2793
74,1,74,179.2013,1.6001,virtualtown,0,NR,0,999.0000,0,1,0.1230
75,1,75,180.8016,1.5992,virtualtown,0,NR,0,999.0000,0,1,0.2058
76,1,76,182.4009,1.5995,virtualtown,1,NR,0,999.0000,1,1,0.1622
77,1,77,184.0038,9.9977,rest,0,NR,1,999.0000,NR,1,0.0000
78,1,78,194.0018,1.5996,fruitveg,0,NR,0,999.0000,0,1,0.5186
79,1,79,195.6016,1.5987,fruitveg,0,NR,0,999.0000,0,1,0.1471
80,1,80,197.2005,1.6001,fruitveg,1,NR,0,999.0000,1,1,0.3624
81,1,81,198.8007,1.6003,fruitveg,0,NR,0,999.0000,0,1,0.0564
82,1,82,200.4012,1.6000,fruitveg,0,0,1,0.5966,NR,0,999.0000
83,1,83,202.0014,1.5995,fruitveg,0,NR,0,999.0000,0,1,0.1386
84,1,84,203.6011,1.5994,fruitveg,1,NR,0,999.0000,1,1,0.1009
85,1,85,205.2008,1.5997,fruitveg,0,NR,0,999.0000,0,1,0.0164
86,1,86,206.8007,1.6003,fruitveg,0,NR,0,999.0000,0,1,0.0046
87,1,87,208.4012,1.6000,fruitveg,1,NR,0,999.0000,1,1,0.0559
88,1,88,210.0043,9.9961,rest,0,NR,1,999.0000,NR,1,0.0000
89,1,89,220.0006,1.5996,animal,0,NR,0,999.0000,0,1,0.3060
90,1,90,221.6004,1.6007,animal,0,NR,0,999.0000,0,1,0.1277
91,1,91,223.2013,1.6001,animal,0,0,1,0.5663,NR,0,999.0000
92,1,92,224.8016,1.5990,animal,0,0,1,0.5653,NR,0,999.0000
93,1,93,226.4008,1.5995,animal,0,0,1,0.4767,NR,0,999.0000
94,1,94,228.0004,1.6004,animal,1,0,0,0.5927,NR,0,999.0000
95,1,95,229.6010,1.5992,animal,0,0,1,0.5559,NR,0,999.0000
96,1,96,231.2003,1.5998,animal,1,NR,0,999.0000,NR,0,999.0000
97,1,97,232.8003,1.6000,animal,0,NR,0,999.0000,0,1,0.1979
98,1,98,234.4005,1.6007,animal,1,NR,0,999.0000,1,1,0.1604
99,1,99,236.0049,9.9952,rest,0,NR,1,999.0000,NR,1,0.0000
100,1,100,246.0004,1.6001,tool,0,NR,0,999.0000,0,1,0.2220
101,1,101,247.6007,1.5995,tool,0,NR,0,999.0000,0,1,0.1062
102,1,102,249.2004,1.6001,tool,0,0,1,0.5920,NR,0,999.0000
103,1,103,250.8007,1.5998,tool,1,1,1,0.4891,NR,0,999.0000
104,1,104,252.4007,1.5998,tool,0,0,1,0.5252,NR,0,999.0000
105,1,105,254.0007,1.6005,tool,1,NR,0,999.0000,1,1,0.4590
106,1,106,255.6014,1.5989,tool,0,NR,0,999.0000,0,1,0.0154
107,1,107,257.2005,1.6006,tool,0,NR,0,999.0000,0,1,0.0871
108,1,108,258.8012,1.6000,tool,0,0,1,0.5889,NR,0,999.0000
109,1,109,260.4014,1.6000,tool,1,NR,0,999.0000,1,1,0.0642
110,1,110,262.0058,9.9949,rest,0,NR,1,999.0000,NR,1,0.0000
111,1,111,272.0009,1.6003,animal,0,NR,0,999.0000,0,1,0.5364
112,1,112,273.6014,1.5993,animal,0,NR,0,999.0000,0,1,0.2383
113,1,113,275.2009,1.6005,animal,0,NR,0,999.0000,0,1,0.1542
114,1,114,276.8016,1.5992,animal,0,NR,0,999.0000,0,1,0.3824
115,1,115,278.4010,1.6002,animal,1,NR,0,999.0000,1,1,0.0047
116,1,116,280.0014,1.5993,animal,0,0,1,0.5440,NR,0,999.0000
117,1,117,281.6008,1.5994,animal,0,0,1,0.5020,NR,0,999.0000
118,1,118,283.2005,1.6000,animal,1,NR,0,999.0000,1,1,0.0294
119,1,119,284.8006,1.5997,animal,0,NR,0,999.0000,0,1,0.0089
120,1,120,286.4005,1.6002,animal,1,1,1,0.5632,NR,0,999.0000
121,1,121,288.0064,9.9939,rest,0,NR,1,999.0000,NR,1,0.0000
122,1,122,298.0005,1.6007,virtualtown,0,NR,0,999.0000,NR,0,999.0000
123,1,123,299.6013,1.5997,virtualtown,0,0,1,0.3197,NR,0,999.0000
124,1,124,301.2013,1.5989,virtualtown,1,0,0,0.5314,NR,0,999.0000
125,1,125,302.8004,1.6002,virtualtown,0,NR,0,999.0000,0,1,0.0431
126,1,126,304.4009,1.6001,virtualtown,0,NR,0,999.0000,0,1,0.0337
127,1,127,306.0012,1.5990,virtualtown,1,1,1,0.4906,NR,0,999.0000
128,1,128,307.6004,1.6005,virtualtown,0,0,1,0.5742,NR,0,999.0000
129,1,129,309.2011,1.6002,virtualtown,1,NR,0,999.0000,1,1,0.1111
130,1,130,310.8015,1.5996,virtualtown,0,NR,0,999.0000,0,1,0.1389
131,1,131,312.4013,1.5997,virtualtown,0,NR,0,999.0000,0,1,0.2675
132,1,132,314.0070,9.9936,rest,0,NR,1,999.0000,NR,1,0.0000
133,1,133,324.0008,1.5994,fruitveg,0,NR,0,999.0000,NR,0,999.0000
134,1,134,325.6004,1.6007,fruitveg,0,NR,0,999.0000,0,1,0.0794
135,1,135,327.2013,1.5998,fruitveg,0,0,1,0.5130,NR,0,999.0000
136,1,136,328.8013,1.5999,fruitveg,0,NR,0,999.0000,NR,0,999.0000
137,1,137,330.4014,1.5988,fruitveg,1,NR,0,999.0000,1,1,0.0424
138,1,138,332.0004,1.5998,fruitveg,0,0,1,0.4583,NR,0,999.0000
139,1,139,333.6004,1.6004,fruitveg,1,NR,0,999.0000,1,1,0.1723
140,1,140,335.2010,1.5996,fruitveg,0,0,1,0.5254,NR,0,999.0000
141,1,141,336.8008,1.5996,fruitveg,0,0,1,0.5221,NR,0,999.0000
142,1,142,338.4006,1.5995,fruitveg,1,NR,0,999.0000,1,1,0.2324
143,1,143,340.0076,9.9930,rest,0,NR,1,999.0000,NR,1,0.0000
144,1,144,350.0009,1.5994,animal,0,NR,0,999.0000,NR,0,999.0000
145,1,145,351.6005,1.6009,animal,0,NR,0,999.0000,0,1,0.5103
146,1,146,353.2016,1.5992,animal,0,NR,0,999.0000,0,1,0.0726
147,1,147,354.8010,1.5990,animal,1,0,0,0.5030,NR,0,999.0000
148,1,148,356.4002,1.5999,animal,0,0,1,0.5079,NR,0,999.0000
149,1,149,358.0004,1.6008,animal,1,NR,0,999.0000,1,1,0.0441
150,1,150,359.6014,1.5999,animal,0,NR,0,999.0000,0,1,0.0294
151,1,151,361.2015,1.5995,animal,0,NR,0,999.0000,0,1,0.0617
152,1,152,362.8012,1.5990,animal,0,0,1,0.5196,NR,0,999.0000
153,1,153,364.4004,1.6002,animal,1,1,1,0.5594,NR,0,999.0000
154,1,154,366.0082,9.9922,rest,0,NR,1,999.0000,NR,1,0.0000
155,1,155,376.0006,1.6007,tool,0,NR,0,999.0000,0,1,0.2655
156,1,156,377.6015,1.5994,tool,0,NR,0,999.0000,NR,0,999.0000
157,1,157,379.2011,1.5990,tool,1,0,0,0.4888,NR,0,999.0000
158,1,158,380.8003,1.5998,tool,0,NR,0,999.0000,0,1,0.0940
159,1,159,382.4003,1.6003,tool,1,NR,0,999.0000,1,1,0.4553
160,1,160,384.0008,1.5993,tool,0,0,1,0.5667,NR,0,999.0000
161,1,161,385.6003,1.6001,tool,0,0,1,0.4620,NR,0,999.0000
162,1,162,387.2006,1.6007,tool,1,NR,0,999.0000,1,1,0.0469
163,1,163,388.8015,1.5993,tool,0,NR,0,999.0000,0,1,0.0857
164,1,164,390.4010,1.5997,tool,0,NR,0,999.0000,0,1,0.1251
165,1,165,392.0088,9.9930,rest,0,NR,1,999.0000,NR,1,0.0000
166,1,166,402.0021,1.5985,face,0,0,1,0.5851,NR,0,999.0000
167,1,167,403.6008,1.5999,face,0,0,1,0.5126,NR,0,999.0000
168,1,168,405.2008,1.5996,face,0,0,1,0.4595,NR,0,999.0000
169,1,169,406.8007,1.6000,face,1,1,1,0.5716,NR,0,999.0000
170,1,170,408.4008,1.6001,face,0,0,1,0.5383,NR,0,999.0000
171,1,171,410.0011,1.5996,face,0,NR,0,999.0000,1,0,0.2155
172,1,172,411.6009,1.5992,face,1,NR,0,999.0000,1,1,0.0376
173,1,173,413.2003,1.6004,face,0,0,1,0.5758,NR,0,999.0000
174,1,174,414.8009,1.5997,face,0,0,1,0.5416,NR,0,999.0000
175,1,175,416.4008,1.5999,face,1,1,1,0.5700,NR,0,999.0000
176,1,176,418.0094,9.9908,rest,0,NR,1,999.0000,NR,1,0.0000
177,1,177,428.0004,1.6010,face,0,0,1,0.5456,NR,0,999.0000
178,1,178,429.6015,1.5993,face,0,NR,0,999.0000,0,1,0.1242
179,1,179,431.2011,1.5991,face,1,NR,0,999.0000,1,1,0.1689
180,1,180,432.8004,1.6003,face,0,NR,0,999.0000,0,1,0.3009
181,1,181,434.4009,1.5995,face,0,NR,0,999.0000,0,1,0.0630
182,1,182,436.0006,1.6004,face,0,0,1,0.5746,NR,0,999.0000
183,1,183,437.6012,1.6002,face,1,NR,0,999.0000,0,0,0.1115
184,1,184,439.2016,1.5994,face,0,0,1,0.5770,NR,0,999.0000
185,1,185,440.8012,1.5995,face,1,NR,0,999.0000,1,1,0.5827
186,1,186,442.4009,1.5997,face,0,NR,0,999.0000,0,1,0.1043
187,1,187,444.0099,9.9908,rest,0,NR,1,999.0000,NR,1,0.0000
188,1,188,454.0009,1.6000,fruitveg,0,0,1,0.5447,NR,0,999.0000
189,1,189,455.6011,1.6001,fruitveg,0,0,1,0.5610,NR,0,999.0000
190,1,190,457.2014,1.5996,fruitveg,1,NR,0,999.0000,1,1,0.0618
191,1,191,458.8012,1.5988,fruitveg,0,0,1,0.5843,NR,0,999.0000
192,1,192,460.4003,1.6003,fruitveg,0,0,1,0.5495,NR,0,999.0000
193,1,193,462.0007,1.6006,fruitveg,0,0,1,0.5640,NR,0,999.0000
194,1,194,463.6015,1.5992,fruitveg,1,NR,0,999.0000,1,1,0.3183
195,1,195,465.2010,1.5997,fruitveg,0,0,1,0.5711,NR,0,999.0000
196,1,196,466.8008,1.5999,fruitveg,0,0,1,0.5489,NR,0,999.0000
197,1,197,468.4009,1.5993,fruitveg,1,NR,0,999.0000,1,1,0.7475
198,1,198,470.0106,9.9905,rest,0,NR,1,999.0000,NR,1,0.0000
199,1,199,480.0013,1.5992,animal,0,0,1,0.5758,NR,0,999.0000
200,1,200,481.6006,1.5998,animal,0,NR,0,999.0000,0,1,0.0887
201,1,201,483.2007,1.6007,animal,0,NR,0,999.0000,0,1,0.1260
202,1,202,484.8016,1.5998,animal,0,0,1,0.5580,NR,0,999.0000
203,1,203,486.4016,1.5986,animal,1,0,0,0.4277,NR,0,999.0000
204,1,204,488.0004,1.6007,animal,0,0,1,0.4582,NR,0,999.0000
205,1,205,489.6013,1.5997,animal,1,NR,0,999.0000,1,1,0.1127
206,1,206,491.2012,1.5990,animal,0,NR,0,999.0000,0,1,0.0762
207,1,207,492.8003,1.5998,animal,0,NR,0,999.0000,0,1,0.1712
208,1,208,494.4004,1.6009,animal,1,NR,0,999.0000,1,1,0.0184
209,1,209,496.0113,9.9901,rest,0,NR,1,999.0000,NR,1,0.0000
210,1,210,506.0016,1.5993,fruitveg,0,0,1,0.5068,NR,0,999.0000
211,1,211,507.6011,1.5998,fruitveg,0,NR,0,999.0000,NR,0,999.0000
212,1,212,509.2010,1.5995,fruitveg,1,0,0,0.5614,NR,0,999.0000
213,1,213,510.8007,1.6005,fruitveg,0,NR,0,999.0000,0,1,0.1227
214,1,214,512.4014,1.5992,fruitveg,1,NR,0,999.0000,NR,0,999.0000
215,1,215,514.0008,1.5995,fruitveg,0,0,1,0.4930,NR,0,999.0000
216,1,216,515.6004,1.6001,fruitveg,0,0,1,0.5180,NR,0,999.0000
217,1,217,517.2007,1.5998,fruitveg,1,NR,0,999.0000,NR,0,999.0000
218,1,218,518.8007,1.6003,fruitveg,0,0,1,0.5496,NR,0,999.0000
219,1,219,520.4011,1.5993,fruitveg,0,NR,0,999.0000,0,1,0.2167
220,1,220,522.0119,9.9886,rest,0,NR,1,999.0000,NR,1,0.0000
221,2,1,12.0030,1.5987,animal,0,NR,0,999.0000,0,1,0.1776
222,2,2,13.6019,1.5985,animal,0,0,1,0.4404,NR,0,999.0000
223,2,3,15.2006,1.5994,animal,1,1,1,0.4706,NR,0,999.0000
224,2,4,16.8003,1.6008,animal,0,NR,0,999.0000,NR,0,999.0000
225,2,5,18.4013,1.5997,animal,0,0,1,0.5399,NR,0,999.0000
226,2,6,20.0011,1.5996,animal,1,NR,0,999.0000,1,1,0.0667
227,2,7,21.6009,1.5994,animal,0,0,1,0.4494,NR,0,999.0000
228,2,8,23.2005,1.5997,animal,1,NR,0,999.0000,1,1,0.5260
229,2,9,24.8004,1.5997,animal,0,NR,0,999.0000,0,1,0.0434
230,2,10,26.4003,1.6005,animal,0,0,1,0.4256,NR,0,999.0000
231,2,11,28.0086,9.9923,rest,0,NR,1,999.0000,NR,1,0.0000
232,2,12,38.0012,1.5994,tool,0,0,1,0.5661,NR,0,999.0000
233,2,13,39.6008,1.6000,tool,0,0,1,0.5306,NR,0,999.0000
234,2,14,41.2009,1.6005,tool,1,NR,0,999.0000,1,1,0.1059
235,2,15,42.8016,1.5991,tool,0,NR,0,999.0000,0,1,0.0460
236,2,16,44.4009,1.6003,tool,1,NR,0,999.0000,1,1,0.0406
237,2,17,46.0014,1.5999,tool,0,0,1,0.4163,NR,0,999.0000
238,2,18,47.6015,1.5994,tool,1,NR,0,999.0000,1,1,0.2361
239,2,19,49.2011,1.5993,tool,0,0,1,0.4292,NR,0,999.0000
240,2,20,50.8006,1.5998,tool,0,0,1,0.4486,NR,0,999.0000
241,2,21,52.4006,1.6003,tool,0,0,1,0.5238,NR,0,999.0000
242,2,22,54.0093,9.9914,rest,0,NR,1,999.0000,NR,1,0.0000
243,2,23,64.0009,1.5998,animal,0,NR,0,999.0000,0,1,0.0518
244,2,24,65.6009,1.5998,animal,0,0,1,0.5360,NR,0,999.0000
245,2,25,67.2009,1.6001,animal,0,0,1,0.4176,NR,0,999.0000
246,2,26,68.8012,1.5989,animal,1,0,0,0.5597,NR,0,999.0000
247,2,27,70.4003,1.6008,animal,0,0,1,0.3636,NR,0,999.0000
248,2,28,72.0013,1.6000,animal,1,1,1,0.5066,NR,0,999.0000
249,2,29,73.6015,1.5988,animal,0,0,1,0.5013,NR,0,999.0000
250,2,30,75.2005,1.6007,animal,0,1,0,0.5084,NR,0,999.0000
251,2,31,76.8014,1.6000,animal,0,0,1,0.5161,NR,0,999.0000
252,2,32,78.4016,1.5991,animal,1,NR,0,999.0000,1,1,0.2672
253,2,33,80.0098,9.9916,rest,0,NR,1,999.0000,NR,1,0.0000
254,2,34,90.0016,1.5993,fruitveg,0,0,1,0.5822,NR,0,999.0000
255,2,35,91.6011,1.5999,fruitveg,0,0,1,0.5298,NR,0,999.0000
256,2,36,93.2012,1.5996,fruitveg,1,NR,0,999.0000,1,1,0.0862
257,2,37,94.8010,1.5991,fruitveg,0,0,1,0.4471,NR,0,999.0000
258,2,38,96.4002,1.5999,fruitveg,1,NR,0,999.0000,1,1,0.1868
259,2,39,98.0003,1.6002,fruitveg,0,0,1,0.5072,NR,0,999.0000
260,2,40,99.6007,1.6005,fruitveg,0,NR,0,999.0000,0,1,0.2320
261,2,41,101.2014,1.5990,fruitveg,0,0,1,0.5222,NR,0,999.0000
262,2,42,102.8006,1.6008,fruitveg,0,NR,0,999.0000,NR,0,999.0000
263,2,43,104.4016,1.5991,fruitveg,1,NR,0,999.0000,1,1,0.0697
264,2,44,106.0104,9.9898,rest,0,NR,1,999.0000,NR,1,0.0000
265,2,45,116.0004,1.6010,fruitveg,0,NR,0,999.0000,0,1,0.2212
266,2,46,117.6016,1.5988,fruitveg,0,0,1,0.3660,NR,0,999.0000
267,2,47,119.2006,1.6005,fruitveg,0,0,1,0.4823,NR,0,999.0000
268,2,48,120.8013,1.5991,fruitveg,0,0,1,0.5053,NR,0,999.0000
269,2,49,122.4006,1.6001,fruitveg,1,NR,0,999.0000,0,0,0.1877
270,2,50,124.0009,1.5997,fruitveg,0,0,1,0.4088,NR,0,999.0000
271,2,51,125.6008,1.5998,fruitveg,1,NR,0,999.0000,1,1,0.0407
272,2,52,127.2008,1.6006,fruitveg,0,0,1,0.5028,NR,0,999.0000
273,2,53,128.8015,1.5998,fruitveg,0,NR,0,999.0000,NR,0,999.0000
274,2,54,130.4016,1.5996,fruitveg,1,NR,0,999.0000,1,1,0.6200
275,2,55,132.0110,9.9900,rest,0,NR,1,999.0000,NR,1,0.0000
276,2,56,142.0012,1.5995,animal,0,0,1,0.5270,NR,0,999.0000
277,2,57,143.6009,1.6006,animal,0,NR,0,999.0000,0,1,0.1321
278,2,58,145.2017,1.5999,animal,0,NR,0,999.0000,0,1,0.0889
279,2,59,146.8017,1.5988,animal,0,NR,0,999.0000,0,1,0.0059
280,2,60,148.4008,1.6000,animal,0,0,1,0.4679,NR,0,999.0000
281,2,61,150.0010,1.6000,animal,1,NR,0,999.0000,1,1,0.0048
282,2,62,151.6012,1.6001,animal,0,0,1,0.4591,NR,0,999.0000
283,2,63,153.2015,1.5992,animal,1,NR,0,999.0000,1,1,0.0142
284,2,64,154.8010,1.5997,animal,0,NR,0,999.0000,0,1,0.0271
285,2,65,156.4008,1.6004,animal,1,NR,0,999.0000,1,1,0.1156
286,2,66,158.0116,9.9898,rest,0,NR,1,999.0000,NR,1,0.0000
287,2,67,168.0017,1.5994,face,0,NR,0,999.0000,0,1,0.1593
288,2,68,169.6012,1.5995,face,0,0,1,0.5542,NR,0,999.0000
289,2,69,171.2009,1.6001,face,0,0,1,0.5562,NR,0,999.0000
290,2,70,172.8012,1.5999,face,0,0,1,0.5033,NR,0,999.0000
291,2,71,174.4013,1.5992,face,1,NR,0,999.0000,1,1,0.2687
292,2,72,176.0006,1.6006,face,0,NR,0,999.0000,NR,0,999.0000
293,2,73,177.6015,1.5998,face,0,NR,0,999.0000,0,1,0.0142
294,2,74,179.2014,1.5999,face,1,NR,0,999.0000,1,1,0.2555
295,2,75,180.8015,1.5992,face,0,NR,0,999.0000,0,1,0.1069
296,2,76,182.4010,1.6002,face,1,NR,0,999.0000,0,0,0.1619
297,2,77,184.0122,9.9889,rest,0,NR,1,999.0000,NR,1,0.0000
298,2,78,194.0015,1.5992,fruitveg,0,NR,0,999.0000,0,1,0.2544
299,2,79,195.6009,1.5995,fruitveg,0,NR,0,999.0000,0,1,0.3225
300,2,80,197.2006,1.6001,fruitveg,1,NR,0,999.0000,1,1,0.1487
301,2,81,198.8009,1.6005,fruitveg,0,0,1,0.5221,NR,0,999.0000
302,2,82,200.4015,1.5996,fruitveg,1,NR,0,999.0000,1,1,0.1843
303,2,83,202.0013,1.5998,fruitveg,0,0,1,0.5041,NR,0,999.0000
304,2,84,203.6013,1.5992,fruitveg,0,0,1,0.5714,NR,0,999.0000
305,2,85,205.2008,1.5996,fruitveg,0,0,1,0.5801,NR,0,999.0000
306,2,86,206.8006,1.5999,fruitveg,1,0,0,0.5883,NR,0,999.0000
307,2,87,208.4007,1.6004,fruitveg,0,NR,0,999.0000,0,1,0.0595
308,2,88,210.0129,9.9882,rest,0,NR,1,999.0000,NR,1,0.0000
309,2,89,220.0013,1.5996,tool,0,NR,0,999.0000,NR,0,999.0000
310,2,90,221.6011,1.5999,tool,0,NR,0,999.0000,NR,0,999.0000
311,2,91,223.2012,1.5996,tool,0,0,1,0.5770,NR,0,999.0000
312,2,92,224.8010,1.5995,tool,0,0,1,0.5039,NR,0,999.0000
313,2,93,226.4007,1.6003,tool,1,NR,0,999.0000,NR,0,999.0000
314,2,94,228.0012,1.5995,tool,0,NR,0,999.0000,0,1,0.0191
315,2,95,229.6009,1.5996,tool,0,NR,0,999.0000,0,1,0.0849
316,2,96,231.2007,1.6002,tool,1,NR,0,999.0000,1,1,0.0236
317,2,97,232.8011,1.6003,tool,0,NR,0,999.0000,0,1,0.1368
318,2,98,234.4016,1.5987,tool,1,NR,0,999.0000,1,1,0.0339
319,2,99,236.0135,9.9876,rest,0,NR,1,999.0000,NR,1,0.0000
320,2,100,246.0013,1.5989,tool,0,0,1,0.5821,NR,0,999.0000
321,2,101,247.6004,1.6000,tool,0,0,1,0.5087,NR,0,999.0000
322,2,102,249.2006,1.6004,tool,1,NR,0,999.0000,1,1,0.1445
323,2,103,250.8013,1.5992,tool,0,0,1,0.4358,NR,0,999.0000
324,2,104,252.4006,1.6003,tool,0,0,1,0.4962,NR,0,999.0000
325,2,105,254.0011,1.6000,tool,0,0,1,0.5190,NR,0,999.0000
326,2,106,255.6013,1.5996,tool,1,NR,0,999.0000,1,1,0.0813
327,2,107,257.2011,1.5999,tool,0,0,1,0.4353,NR,0,999.0000
328,2,108,258.8012,1.5991,tool,0,0,1,0.3705,NR,0,999.0000
329,2,109,260.4004,1.5999,tool,1,NR,0,999.0000,1,1,0.1818
330,2,110,262.0142,9.9868,rest,0,NR,1,999.0000,NR,1,0.0000
331,2,111,272.0012,1.5997,animal,0,NR,0,999.0000,0,1,0.1038
332,2,112,273.6010,1.6000,animal,0,NR,0,999.0000,0,1,0.1338
333,2,113,275.2013,1.5991,animal,0,NR,0,999.0000,0,1,0.1111
334,2,114,276.8006,1.6008,animal,0,NR,0,999.0000,0,1,0.1036
335,2,115,278.4016,1.5995,animal,1,1,1,0.5323,NR,0,999.0000
336,2,116,280.0013,1.5999,animal,0,0,1,0.5627,NR,0,999.0000
337,2,117,281.6013,1.6000,animal,0,NR,0,999.0000,0,1,0.0100
338,2,118,283.2016,1.5996,animal,1,NR,0,999.0000,1,1,0.1045
339,2,119,284.8013,1.5989,animal,0,NR,0,999.0000,0,1,0.0335
340,2,120,286.4004,1.6005,animal,1,NR,0,999.0000,0,0,0.0267
341,2,121,288.0147,9.9867,rest,0,NR,1,999.0000,NR,1,0.0000
342,2,122,298.0016,1.5992,virtualtown,0,NR,0,999.0000,0,1,0.2084
343,2,123,299.6010,1.6000,virtualtown,0,0,1,0.5105,NR,0,999.0000
344,2,124,301.2013,1.5989,virtualtown,0,NR,0,999.0000,NR,0,999.0000
345,2,125,302.8004,1.6007,virtualtown,1,NR,0,999.0000,0,0,0.3350
346,2,126,304.4013,1.5991,virtualtown,0,NR,0,999.0000,0,1,0.0045
347,2,127,306.0005,1.6002,virtualtown,1,NR,0,999.0000,1,1,0.2367
348,2,128,307.6009,1.5997,virtualtown,0,0,1,0.5813,NR,0,999.0000
349,2,129,309.2008,1.5997,virtualtown,1,NR,0,999.0000,0,0,0.6910
350,2,130,310.8006,1.6003,virtualtown,0,0,1,0.4798,NR,0,999.0000
351,2,131,312.4011,1.5999,virtualtown,0,NR,0,999.0000,0,1,0.0198
352,2,132,314.0153,9.9855,rest,0,NR,1,999.0000,NR,1,0.0000
353,2,133,324.0011,1.5999,virtualtown,0,0,1,0.5078,NR,0,999.0000
354,2,134,325.6012,1.5989,virtualtown,0,0,1,0.5245,NR,0,999.0000
355,2,135,327.2003,1.6010,virtualtown,0,NR,0,999.0000,0,1,0.2525
356,2,136,328.8015,1.5996,virtualtown,1,NR,0,999.0000,1,1,0.0915
357,2,137,330.4013,1.5988,virtualtown,0,0,1,0.4502,NR,0,999.0000
358,2,138,332.0003,1.6011,virtualtown,0,0,1,0.4969,NR,0,999.0000
359,2,139,333.6015,1.5988,virtualtown,0,0,1,0.4789,NR,0,999.0000
360,2,140,335.2005,1.5996,virtualtown,1,1,1,0.5792,NR,0,999.0000
361,2,141,336.8003,1.6007,virtualtown,0,NR,0,999.0000,0,1,0.0183
362,2,142,338.4012,1.6002,virtualtown,1,0,0,0.3076,NR,0,999.0000
363,2,143,340.0160,9.9849,rest,0,NR,1,999.0000,NR,1,0.0000
364,2,144,350.0012,1.6001,tool,0,NR,0,999.0000,0,1,0.1209
365,2,145,351.6015,1.5997,tool,0,NR,0,999.0000,NR,0,999.0000
366,2,146,353.2014,1.5990,tool,0,NR,0,999.0000,0,1,0.0655
367,2,147,354.8006,1.6003,tool,1,NR,0,999.0000,1,1,0.2080
368,2,148,356.4011,1.5996,tool,0,0,1,0.4859,NR,0,999.0000
369,2,149,358.0009,1.5999,tool,1,NR,0,999.0000,1,1,0.2383
370,2,150,359.6010,1.5997,tool,0,NR,0,999.0000,0,1,0.0127
371,2,151,361.2010,1.5996,tool,0,NR,0,999.0000,0,1,0.0474
372,2,152,362.8008,1.5993,tool,1,NR,0,999.0000,1,1,0.1790
373,2,153,364.4003,1.5998,tool,0,NR,0,999.0000,0,1,0.0536
374,2,154,366.0167,9.9841,rest,0,NR,1,999.0000,NR,1,0.0000
375,2,155,376.0010,1.5992,face,0,NR,0,999.0000,0,1,0.3755
376,2,156,377.6004,1.5996,face,0,0,1,0.4993,NR,0,999.0000
377,2,157,379.2002,1.6002,face,0,0,1,0.5094,NR,0,999.0000
378,2,158,380.8007,1.5995,face,1,1,1,0.5374,NR,0,999.0000
379,2,159,382.4004,1.6000,face,0,0,1,0.3678,NR,0,999.0000
380,2,160,384.0005,1.6005,face,1,NR,0,999.0000,1,1,0.2042
381,2,161,385.6012,1.5997,face,0,NR,0,999.0000,0,1,0.0339
382,2,162,387.2011,1.5999,face,0,NR,0,999.0000,0,1,0.0060
383,2,163,388.8012,1.6001,face,0,NR,0,999.0000,0,1,0.3059
384,2,164,390.4015,1.5994,face,1,NR,0,999.0000,1,1,0.1257
385,2,165,392.0173,9.9840,rest,0,NR,1,999.0000,NR,1,0.0000
386,2,166,402.0015,1.5986,virtualtown,0,0,1,0.5118,NR,0,999.0000
387,2,167,403.6003,1.6003,virtualtown,0,0,1,0.5384,NR,0,999.0000
388,2,168,405.2008,1.6000,virtualtown,1,NR,0,999.0000,0,0,0.6018
389,2,169,406.8011,1.5990,virtualtown,0,NR,0,999.0000,0,1,0.2755
390,2,170,408.4002,1.6001,virtualtown,1,NR,0,999.0000,1,1,0.1768
391,2,171,410.0006,1.6000,virtualtown,0,0,1,0.5482,NR,0,999.0000
392,2,172,411.6007,1.6000,virtualtown,0,NR,0,999.0000,0,1,0.2154
393,2,173,413.2010,1.5996,virtualtown,0,NR,0,999.0000,0,1,0.5733
394,2,174,414.8008,1.6004,virtualtown,1,NR,0,999.0000,1,1,0.0944
395,2,175,416.4014,1.5997,virtualtown,0,NR,0,999.0000,0,1,0.2954
396,2,176,418.0179,9.9823,rest,0,NR,1,999.0000,NR,1,0.0000
397,2,177,428.0004,1.6006,fruitveg,0,0,1,0.4988,NR,0,999.0000
398,2,178,429.6012,1.6001,fruitveg,0,NR,0,999.0000,0,1,0.0237
399,2,179,431.2015,1.5989,fruitveg,1,1,1,0.5624,NR,0,999.0000
400,2,180,432.8006,1.6001,fruitveg,0,0,1,0.5212,NR,0,999.0000
401,2,181,434.4009,1.5998,fruitveg,0,0,1,0.5367,NR,0,999.0000
402,2,182,436.0009,1.6000,fruitveg,0,NR,0,999.0000,0,1,0.0597
403,2,183,437.6011,1.5997,fruitveg,1,NR,0,999.0000,1,1,0.9425
404,2,184,439.2010,1.6001,fruitveg,0,0,1,0.5770,NR,0,999.0000
405,2,185,440.8013,1.5999,fruitveg,1,NR,0,999.0000,1,1,0.0302
406,2,186,442.4014,1.5997,fruitveg,0,0,1,0.4586,NR,0,999.0000
407,2,187,444.0185,9.9824,rest,0,NR,1,999.0000,NR,1,0.0000
408,2,188,454.0012,1.5993,face,0,NR,0,999.0000,0,1,0.0054
409,2,189,455.6006,1.6001,face,0,0,1,0.5389,NR,0,999.0000
410,2,190,457.2010,1.6003,face,1,NR,0,999.0000,1,1,0.1031
411,2,191,458.8014,1.5995,face,0,0,1,0.4363,NR,0,999.0000
412,2,192,460.4011,1.5991,face,0,0,1,0.3934,NR,0,999.0000
413,2,193,462.0004,1.6009,face,0,0,1,0.4555,NR,0,999.0000
414,2,194,463.6015,1.5995,face,1,NR,0,999.0000,1,1,0.1139
415,2,195,465.2012,1.6000,face,0,0,1,0.4339,NR,0,999.0000
416,2,196,466.8013,1.5996,face,1,0,0,0.3734,1,1,0.2365
417,2,197,468.4011,1.5998,face,0,0,1,0.4799,NR,0,999.0000
418,2,198,470.0191,9.9816,rest,0,NR,1,999.0000,NR,1,0.0000
419,2,199,480.0009,1.5994,face,0,NR,0,999.0000,0,1,0.0607
420,2,200,481.6004,1.6001,face,0,NR,0,999.0000,0,1,0.0583
421,2,201,483.2007,1.5994,face,1,NR,0,999.0000,1,1,0.0046
422,2,202,484.8003,1.6008,face,0,0,1,0.5603,NR,0,999.0000
423,2,203,486.4013,1.5993,face,1,NR,0,999.0000,0,0,0.0584
424,2,204,488.0008,1.6004,face,0,0,1,0.3763,NR,0,999.0000
425,2,205,489.6014,1.5991,face,1,0,0,0.3822,0,0,0.0103
426,2,206,491.2007,1.5998,face,0,0,1,0.5083,NR,0,999.0000
427,2,207,492.8007,1.6003,face,0,NR,0,999.0000,0,1,0.0487
428,2,208,494.4012,1.5994,face,0,0,1,0.4852,NR,0,999.0000
429,2,209,496.0029,9.9978,rest,0,NR,1,999.0000,NR,1,0.0000
430,2,210,506.0009,1.5994,virtualtown,0,NR,0,999.0000,0,1,0.2672
431,2,211,507.6005,1.5998,virtualtown,0,NR,0,999.0000,0,1,0.0410
432,2,212,509.2005,1.6007,virtualtown,1,NR,0,999.0000,1,1,0.1095
433,2,213,510.8014,1.5993,virtualtown,0,NR,0,999.0000,0,1,0.0171
434,2,214,512.4009,1.6001,virtualtown,0,NR,0,999.0000,0,1,0.4095
435,2,215,514.0013,1.5990,virtualtown,0,NR,0,999.0000,1,0,0.0458
436,2,216,515.6005,1.6002,virtualtown,0,NR,0,999.0000,0,1,0.1110
437,2,217,517.2009,1.5995,virtualtown,1,NR,0,999.0000,1,1,0.1873
438,2,218,518.8006,1.5996,virtualtown,0,0,1,0.4266,NR,0,999.0000
439,2,219,520.4004,1.6005,virtualtown,1,0,0,0.4829,NR,0,999.0000
440,2,220,522.0036,9.9977,rest,0,NR,1,999.0000,NR,1,0.0000
