index,run,trial,onset,duration,town,pic,itemNum,resp,respRT
1,1,1,1.0019,27.4830,Town6,env6.jpg,1,?,25.3286
2,1,1,1.0019,27.4830,Town6,env6.jpg,2,?,1.1436
3,1,1,1.0019,27.4830,Town6,env6.jpg,3,?,1.0069
4,1,2,28.5210,11.3420,Town8,env8.jpg,1,dog,5.4207
5,1,2,28.5210,11.3420,Town8,env8.jpg,2,beyonce,4.0950
6,1,2,28.5210,11.3420,Town8,env8.jpg,3,oranges,1.8244
7,1,3,39.8986,19.2681,Town1,env1.jpg,1,zebra,6.7555
8,1,3,39.8986,19.2681,Town1,env1.jpg,2,george clooney,5.7986
9,1,3,39.8986,19.2681,Town1,env1.jpg,3,Lettuce,6.7118
10,1,4,59.2018,31.7603,Town5,env5.jpg,1,benedict cumberbatch,8.1967
11,1,4,59.2018,31.7603,Town5,env5.jpg,2,grapes,17.4495
12,1,4,59.2018,31.7603,Town5,env5.jpg,3,hammer,6.1123
13,1,5,90.9975,21.0534,Town12,env12.jpg,1,grapes,10.6445
14,1,5,90.9975,21.0534,Town12,env12.jpg,2,?,9.5450
15,1,5,90.9975,21.0534,Town12,env12.jpg,3,?,0.8621
16,1,6,112.0863,28.5650,Town3,env3.jpg,1,emma watson,11.0236
17,1,6,112.0863,28.5650,Town3,env3.jpg,2,screwdriver,11.2177
18,1,6,112.0863,28.5650,Town3,env3.jpg,3,?,6.3217
19,1,7,140.6866,30.2076,Town7,env7.jpg,1,sheldon cooper,11.6612
20,1,7,140.6866,30.2076,Town7,env7.jpg,2,screw driver,13.9703
21,1,7,140.6866,30.2076,Town7,env7.jpg,3,giraffe,4.5743
22,1,8,170.9304,21.7338,Town9,env9.jpg,1,goat,7.1350
23,1,8,170.9304,21.7338,Town9,env9.jpg,2,?,13.9163
24,1,8,170.9304,21.7338,Town9,env9.jpg,3,?,0.6807
25,1,9,192.6995,11.3422,Town10,env10.jpg,1,?,9.8940
26,1,9,192.6995,11.3422,Town10,env10.jpg,2,?,0.7111
27,1,9,192.6995,11.3422,Town10,env10.jpg,3,?,0.7354
28,1,10,204.0773,6.6125,Town11,env11.jpg,1,johnny depp,3.4682
29,1,10,204.0773,6.6125,Town11,env11.jpg,2,elephant,1.7286
30,1,10,204.0773,6.6125,Town11,env11.jpg,3,carrot,1.4139
31,1,11,210.7254,16.7773,Town2,env2.jpg,1,mark zuckerberg,10.1187
32,1,11,210.7254,16.7773,Town2,env2.jpg,2,cucumber,5.3132
33,1,11,210.7254,16.7773,Town2,env2.jpg,3,kat,1.3437
34,1,12,227.5386,30.9660,Town4,env4.jpg,1,crocodile,21.2743
35,1,12,227.5386,30.9660,Town4,env4.jpg,2,kiera knightley,3.7029
36,1,12,227.5386,30.9660,Town4,env4.jpg,3,saw,5.9867
37,2,1,1.0015,30.0460,Town12,env12.jpg,1,zoey dechanel,16.6240
38,2,1,1.0015,30.0460,Town12,env12.jpg,2,panda,6.9725
39,2,1,1.0015,30.0460,Town12,env12.jpg,3,apple,6.4454
40,2,2,31.0726,21.8315,Town7,env7.jpg,1,screw driver,14.0765
41,2,2,31.0726,21.8315,Town7,env7.jpg,2,giraffe,5.4020
42,2,2,31.0726,21.8315,Town7,env7.jpg,3,sheldon cooper,2.3511
43,2,3,52.9296,9.1342,Town6,env6.jpg,1,taylor swift,4.8230
44,2,3,52.9296,9.1342,Town6,env6.jpg,2,cow,2.0552
45,2,3,52.9296,9.1342,Town6,env6.jpg,3,measuring tape,2.2543
46,2,4,62.0892,14.3489,Town8,env8.jpg,1,dog,1.7667
47,2,4,62.0892,14.3489,Town8,env8.jpg,2,beyonce,3.8792
48,2,4,62.0892,14.3489,Town8,env8.jpg,3,oranges,8.7013
49,2,5,76.4630,13.2479,Town4,env4.jpg,1,kiera knightley,5.3749
50,2,5,76.4630,13.2479,Town4,env4.jpg,2,crocodile,4.9677
51,2,5,76.4630,13.2479,Town4,env4.jpg,3,saw,2.9034
52,2,6,89.7360,8.8618,Town1,env1.jpg,1,zebra,3.0541
53,2,6,89.7360,8.8618,Town1,env1.jpg,2,george clooney,3.5342
54,2,6,89.7360,8.8618,Town1,env1.jpg,3,lettuce,2.2717
55,2,7,98.6226,13.8321,Town11,env11.jpg,1,johnny depp,8.0237
56,2,7,98.6226,13.8321,Town11,env11.jpg,2,elephant,2.7342
57,2,7,98.6226,13.8321,Town11,env11.jpg,3,carrot,3.0725
58,2,8,112.4796,16.8659,Town3,env3.jpg,1,hermione granger,7.8575
59,2,8,112.4796,16.8659,Town3,env3.jpg,2,bear,2.6222
60,2,8,112.4796,16.8659,Town3,env3.jpg,3,screw driver,6.3844
61,2,9,129.3707,25.9543,Town10,env10.jpg,1,grapes,22.3295
62,2,9,129.3707,25.9543,Town10,env10.jpg,2,,2.0722
63,2,9,129.3707,25.9543,Town10,env10.jpg,3,?,1.5508
64,2,10,155.3506,11.6473,Town2,env2.jpg,1,mark zuckerberg,6.2870
65,2,10,155.3506,11.6473,Town2,env2.jpg,2,cat,3.0791
66,2,10,155.3506,11.6473,Town2,env2.jpg,3,cucumber,2.2793
67,2,11,167.0227,12.4390,Town5,env5.jpg,1,benedict cumberbatch,7.0854
68,2,11,167.0227,12.4390,Town5,env5.jpg,2,flamingo,2.0245
69,2,11,167.0227,12.4390,Town5,env5.jpg,3,hammer,3.3273
70,2,12,179.4870,17.2808,Town9,env9.jpg,1,goat,4.8704
71,2,12,179.4870,17.2808,Town9,env9.jpg,2,?,11.4319
72,2,12,179.4870,17.2808,Town9,env9.jpg,3,?,0.9768
73,3,1,1.0013,13.0002,Town11,env11.jpg,1,Johnny Depp,5.6204
74,3,1,1.0013,13.0002,Town11,env11.jpg,2,Elephant,4.7681
75,3,1,1.0013,13.0002,Town11,env11.jpg,3,Carrot,2.6076
76,3,2,14.0396,9.8728,Town10,env10.jpg,1,Katy Perry,7.3838
77,3,2,14.0396,9.8728,Town10,env10.jpg,2,grapes,1.6063
78,3,2,14.0396,9.8728,Town10,env10.jpg,3,duck,0.8807
79,3,3,23.9501,10.2822,Town7,env7.jpg,1,Sheldon Cooper,6.0883
80,3,3,23.9501,10.2822,Town7,env7.jpg,2,Power Drill,2.6398
81,3,3,23.9501,10.2822,Town7,env7.jpg,3,giraffe,1.5522
82,3,4,34.2697,8.6663,Town1,env1.jpg,1,zebra,2.5777
83,3,4,34.2697,8.6663,Town1,env1.jpg,2,George Clooney,4.0304
84,3,4,34.2697,8.6663,Town1,env1.jpg,3,lettuce,2.0562
85,3,5,42.9743,10.7615,Town12,env12.jpg,1,Zoey Dechanel,7.4560
86,3,5,42.9743,10.7615,Town12,env12.jpg,2,panda,1.8558
87,3,5,42.9743,10.7615,Town12,env12.jpg,3,apple,1.4479
88,3,6,53.7731,6.3216,Town8,env8.jpg,1,Dog,1.9144
89,3,6,53.7731,6.3216,Town8,env8.jpg,2,Beyonce,1.7660
90,3,6,53.7731,6.3216,Town8,env8.jpg,3,oranges,2.6395
91,3,7,60.1327,8.9143,Town6,env6.jpg,1,Taylor Swift,5.4902
92,3,7,60.1327,8.9143,Town6,env6.jpg,2,cow,1.0308
93,3,7,60.1327,8.9143,Town6,env6.jpg,3,measuring tape,2.3914
94,3,8,69.0850,11.3538,Town4,env4.jpg,1,Kiera Knightley,6.6334
95,3,8,69.0850,11.3538,Town4,env4.jpg,2,crocodile,3.0313
96,3,8,69.0850,11.3538,Town4,env4.jpg,3,saw,1.6874
97,3,9,80.4770,8.9071,Town3,env3.jpg,1,Hermione Granger,4.7451
98,3,9,80.4770,8.9071,Town3,env3.jpg,2,screwdriver,3.2646
99,3,9,80.4770,8.9071,Town3,env3.jpg,3,bear,0.8956
100,3,10,89.4217,42.4383,Town9,env9.jpg,1,goat,3.7774
101,3,10,89.4217,42.4383,Town9,env9.jpg,2,Paul McCartney,35.8674
102,3,10,89.4217,42.4383,Town9,env9.jpg,3,wrench,2.7917
103,3,11,131.8979,9.2748,Town5,env5.jpg,1,Benedict Cumberbatch,6.1145
104,3,11,131.8979,9.2748,Town5,env5.jpg,2,flamingo,2.1414
105,3,11,131.8979,9.2748,Town5,env5.jpg,3,hammer,1.0169
106,3,12,141.2108,8.4658,Town2,env2.jpg,1,Mark Zuckerberg,5.3926
107,3,12,141.2108,8.4658,Town2,env2.jpg,2,cucumber,1.9679
108,3,12,141.2108,8.4658,Town2,env2.jpg,3,cat,1.1035
109,4,1,1.0008,8.0801,Town11,env11.jpg,1,Johnny Depp,4.3177
110,4,1,1.0008,8.0801,Town11,env11.jpg,2,Elephant,2.2298
111,4,1,1.0008,8.0801,Town11,env11.jpg,3,Carrot,1.5284
112,4,2,9.1130,8.5352,Town7,env7.jpg,1,Sheldon Cooper,4.2548
113,4,2,9.1130,8.5352,Town7,env7.jpg,2,Power Drill,2.8065
114,4,2,9.1130,8.5352,Town7,env7.jpg,3,Giraffe,1.4721
115,4,3,17.6798,10.7838,Town4,env4.jpg,1,Kiera Knightley,4.8397
116,4,3,17.6798,10.7838,Town4,env4.jpg,2,Crocodile,4.5191
117,4,3,17.6798,10.7838,Town4,env4.jpg,3,Saw,1.4233
118,4,4,28.4951,9.4084,Town5,env5.jpg,1,Benedict Cumberbatch,6.3125
119,4,4,28.4951,9.4084,Town5,env5.jpg,2,Flamingo,1.9036
120,4,4,28.4951,9.4084,Town5,env5.jpg,3,Hammer,1.1904
121,4,5,37.9349,13.5604,Town9,env9.jpg,1,Goat,1.7129
122,4,5,37.9349,13.5604,Town9,env9.jpg,2,Paul McCartney,7.0301
123,4,5,37.9349,13.5604,Town9,env9.jpg,3,Wrench,4.8155
124,4,6,51.5268,8.2413,Town12,env12.jpg,1,Zoey Dechanel,5.2893
125,4,6,51.5268,8.2413,Town12,env12.jpg,2,Panda,1.7181
126,4,6,51.5268,8.2413,Town12,env12.jpg,3,Apple,1.2320
127,4,7,59.7998,12.3654,Town10,env10.jpg,1,Katy Perry,4.1752
128,4,7,59.7998,12.3654,Town10,env10.jpg,2,Duck,6.9014
129,4,7,59.7998,12.3654,Town10,env10.jpg,3,Grapes,1.2872
130,4,8,72.1970,9.3929,Town1,env1.jpg,1,Zebra,2.5355
131,4,8,72.1970,9.3929,Town1,env1.jpg,2,George Clooney,5.0796
132,4,8,72.1970,9.3929,Town1,env1.jpg,3,Lettuce,1.7761
133,4,9,81.6215,13.2649,Town6,env6.jpg,1,Taylor Swift,6.1204
134,4,9,81.6215,13.2649,Town6,env6.jpg,2,Cow,1.4390
135,4,9,81.6215,13.2649,Town6,env6.jpg,3,Measuring Tape,5.7036
136,4,10,94.9178,5.3130,Town8,env8.jpg,1,Dog,1.8150
137,4,10,94.9178,5.3130,Town8,env8.jpg,2,Beyonce,2.0241
138,4,10,94.9178,5.3130,Town8,env8.jpg,3,Oranges,1.4719
139,4,11,100.2626,7.5282,Town2,env2.jpg,1,Mark Zuckerberg,4.5669
140,4,11,100.2626,7.5282,Town2,env2.jpg,2,Cucumber,1.7429
141,4,11,100.2626,7.5282,Town2,env2.jpg,3,Cat,1.2164
142,4,12,107.8229,15.4561,Town3,env3.jpg,1,Hermione Granger,6.2538
143,4,12,107.8229,15.4561,Town3,env3.jpg,2,Screwdriver,4.7597
144,4,12,107.8229,15.4561,Town3,env3.jpg,3,Bear,4.4405
145,5,1,1.0016,9.9032,Town1,env1.jpg,1,Zebra,3.1163
146,5,1,1.0016,9.9032,Town1,env1.jpg,2,George Clooney,4.8550
147,5,1,1.0016,9.9032,Town1,env1.jpg,3,Lettuce,1.9278
148,5,2,10.9309,9.1644,Town12,env12.jpg,1,Zoey Deschanel,6.2279
149,5,2,10.9309,9.1644,Town12,env12.jpg,2,Panda,1.7759
150,5,2,10.9309,9.1644,Town12,env12.jpg,3,Apple,1.1587
151,5,3,20.1204,8.0305,Town2,env2.jpg,1,Mark Zuckerberg,4.5503
152,5,3,20.1204,8.0305,Town2,env2.jpg,2,Cucumber,2.0237
153,5,3,20.1204,8.0305,Town2,env2.jpg,3,Cat,1.4548
154,5,4,28.1765,9.5107,Town5,env5.jpg,1,Benedict Cumberbatch,6.2548
155,5,4,28.1765,9.5107,Town5,env5.jpg,2,Flamingo,1.7516
156,5,4,28.1765,9.5107,Town5,env5.jpg,3,Hammer,1.5023
157,5,5,37.7121,11.4106,Town6,env6.jpg,1,Tape Measurer,7.5782
158,5,5,37.7121,11.4106,Town6,env6.jpg,2,Taylor Swift,2.8952
159,5,5,37.7121,11.4106,Town6,env6.jpg,3,Cow,0.9354
160,5,6,49.1476,5.5752,Town8,env8.jpg,1,Dog,1.8945
161,5,6,49.1476,5.5752,Town8,env8.jpg,2,Beyonce,2.1596
162,5,6,49.1476,5.5752,Town8,env8.jpg,3,Oranges,1.5191
163,5,7,54.7483,7.5823,Town11,env11.jpg,1,Johnny Depp,3.5742
164,5,7,54.7483,7.5823,Town11,env11.jpg,2,Elephant,2.3827
165,5,7,54.7483,7.5823,Town11,env11.jpg,3,Carrot,1.6232
166,5,8,62.3555,11.5269,Town3,env3.jpg,1,Emma Watson,6.3105
167,5,8,62.3555,11.5269,Town3,env3.jpg,2,Brown Bear,2.4401
168,5,8,62.3555,11.5269,Town3,env3.jpg,3,Screwdriver,2.7745
169,5,9,73.9073,5.5271,Town10,env10.jpg,1,Katy Perry,3.0956
170,5,9,73.9073,5.5271,Town10,env10.jpg,2,Duck,1.1421
171,5,9,73.9073,5.5271,Town10,env10.jpg,3,Grapes,1.2873
172,5,10,79.4593,9.5191,Town4,env4.jpg,1,Kiera Knightley,6.3824
173,5,10,79.4593,9.5191,Town4,env4.jpg,2,Crocodile,2.2797
174,5,10,79.4593,9.5191,Town4,env4.jpg,3,Saw,0.8552
175,5,11,89.0040,9.0300,Town7,env7.jpg,1,Sheldon Cooper,4.7666
176,5,11,89.0040,9.0300,Town7,env7.jpg,2,Giraffe,1.9273
177,5,11,89.0040,9.0300,Town7,env7.jpg,3,Power Drill,2.3342
178,5,12,98.0593,22.1068,Town9,env9.jpg,1,Goat,1.9193
179,5,12,98.0593,22.1068,Town9,env9.jpg,2,Paul McCartney,5.7833
180,5,12,98.0593,22.1068,Town9,env9.jpg,3,Wrench,14.4022
