index,run,trial,onset,duration,cond,rep,resp,acc,respRT,ISIresp,ISIacc,ISIrespRT
1,1,1,12.0054,1.5957,face,0,NR,0,999.0000,NR,0,999.0000
2,1,2,13.6029,1.5976,face,0,0,1,0.3995,NR,0,999.0000
3,1,3,15.2007,1.5993,face,0,0,1,0.4274,NR,0,999.0000
4,1,4,16.8003,1.6002,face,1,1,1,0.3663,NR,0,999.0000
5,1,5,18.4007,1.6002,face,0,0,1,0.3697,NR,0,999.0000
6,1,6,20.0011,1.5990,face,0,0,1,0.3880,NR,0,999.0000
7,1,7,21.6003,1.6007,face,0,0,1,0.4202,NR,0,999.0000
8,1,8,23.2011,1.5995,face,1,1,1,0.5401,NR,0,999.0000
9,1,9,24.8009,1.5996,face,0,0,1,0.3871,NR,0,999.0000
10,1,10,26.4006,1.6003,face,1,1,1,0.4025,NR,0,999.0000
11,1,11,28.0059,9.9957,rest,0,NR,1,999.0000,NR,1,0.0000
12,1,12,38.0019,1.5988,animal,0,0,1,0.5820,NR,0,999.0000
13,1,13,39.6009,1.5994,animal,0,0,1,0.4269,NR,0,999.0000
14,1,14,41.2005,1.5999,animal,0,0,1,0.4273,NR,0,999.0000
15,1,15,42.8006,1.6000,animal,0,0,1,0.4028,NR,0,999.0000
16,1,16,44.4007,1.5998,animal,1,1,1,0.3119,NR,0,999.0000
17,1,17,46.0007,1.5994,animal,0,0,1,0.3149,NR,0,999.0000
18,1,18,47.6003,1.6009,animal,1,1,1,0.4031,NR,0,999.0000
19,1,19,49.2014,1.5991,animal,0,0,1,0.3678,NR,0,999.0000
20,1,20,50.8007,1.6003,animal,1,1,1,0.3855,NR,0,999.0000
21,1,21,52.4012,1.5994,animal,0,0,1,0.4231,NR,0,999.0000
22,1,22,54.0063,9.9955,rest,0,NR,1,999.0000,NR,1,0.0000
23,1,23,64.0020,1.5988,virtualtown,0,NR,0,999.0000,0,1,0.1014
24,1,24,65.6010,1.5994,virtualtown,0,0,1,0.5201,NR,0,999.0000
25,1,25,67.2006,1.6001,virtualtown,1,1,1,0.3832,NR,0,999.0000
26,1,26,68.8010,1.5994,virtualtown,0,0,1,0.3703,NR,0,999.0000
27,1,27,70.4005,1.5998,virtualtown,0,NR,0,999.0000,0,1,0.0485
28,1,28,72.0005,1.6005,virtualtown,1,NR,0,999.0000,NR,0,999.0000
29,1,29,73.6012,1.5996,virtualtown,0,0,1,0.4631,NR,0,999.0000
30,1,30,75.2010,1.5994,virtualtown,0,0,1,0.5795,NR,0,999.0000
31,1,31,76.8006,1.6009,virtualtown,0,NR,0,999.0000,0,1,0.0117
32,1,32,78.4017,1.5986,virtualtown,1,1,1,0.4460,NR,0,999.0000
33,1,33,80.0070,9.9941,rest,0,NR,1,999.0000,NR,1,0.0000
34,1,34,90.0014,1.5991,face,0,0,1,0.3108,NR,0,999.0000
35,1,35,91.6006,1.6004,face,0,0,1,0.3894,NR,0,999.0000
36,1,36,93.2012,1.5990,face,1,1,1,0.3115,NR,0,999.0000
37,1,37,94.8004,1.5999,face,0,0,1,0.2890,NR,0,999.0000
38,1,38,96.4005,1.6003,face,0,0,1,0.3716,NR,0,999.0000
39,1,39,98.0010,1.5995,face,0,0,1,0.3308,NR,0,999.0000
40,1,40,99.6007,1.5995,face,0,0,1,0.3907,NR,0,999.0000
41,1,41,101.2004,1.5998,face,1,1,1,0.3050,NR,0,999.0000
42,1,42,102.8004,1.6000,face,0,0,1,0.2811,NR,0,999.0000
43,1,43,104.4006,1.6004,face,1,1,1,0.3879,NR,0,999.0000
44,1,44,106.0076,9.9933,rest,0,NR,1,999.0000,NR,1,0.0000
45,1,45,116.0011,1.5995,fruitveg,0,0,1,0.5754,NR,0,999.0000
46,1,46,117.6009,1.6003,fruitveg,0,1,0,0.4433,NR,0,999.0000
47,1,47,119.2014,1.5993,fruitveg,1,1,1,0.4662,NR,0,999.0000
48,1,48,120.8009,1.6003,fruitveg,0,0,1,0.4651,NR,0,999.0000
49,1,49,122.4014,1.5987,fruitveg,0,0,1,0.3658,NR,0,999.0000
50,1,50,124.0003,1.5998,fruitveg,0,0,1,0.3759,NR,0,999.0000
51,1,51,125.6003,1.6007,fruitveg,1,1,1,0.3316,NR,0,999.0000
52,1,52,127.2012,1.5998,fruitveg,0,0,1,0.3149,NR,0,999.0000
53,1,53,128.8012,1.5990,fruitveg,0,0,1,0.4217,NR,0,999.0000
54,1,54,130.4004,1.6010,fruitveg,1,1,1,0.3690,NR,0,999.0000
55,1,55,132.0082,9.9931,rest,0,NR,1,999.0000,NR,1,0.0000
56,1,56,142.0015,1.5986,face,0,0,1,0.4290,NR,0,999.0000
57,1,57,143.6002,1.6004,face,0,0,1,0.4058,NR,0,999.0000
58,1,58,145.2008,1.5994,face,0,0,1,0.3856,NR,0,999.0000
59,1,59,146.8004,1.6003,face,1,1,1,0.2924,NR,0,999.0000
60,1,60,148.4009,1.5992,face,0,0,1,0.3636,NR,0,999.0000
61,1,61,150.0003,1.6002,face,1,1,1,0.3201,NR,0,999.0000
62,1,62,151.6007,1.6004,face,0,0,1,0.3580,NR,0,999.0000
63,1,63,153.2013,1.5990,face,1,1,1,0.3216,NR,0,999.0000
64,1,64,154.8005,1.6005,face,0,0,1,0.4263,NR,0,999.0000
65,1,65,156.4011,1.5992,face,0,0,1,0.3817,NR,0,999.0000
66,1,66,158.0087,9.9918,rest,0,NR,1,999.0000,NR,1,0.0000
67,1,67,168.0007,1.6003,animal,0,0,1,0.4519,NR,0,999.0000
68,1,68,169.6012,1.5992,animal,0,NR,0,999.0000,0,1,0.0199
69,1,69,171.2005,1.5999,animal,0,0,1,0.4209,NR,0,999.0000
70,1,70,172.8006,1.5997,animal,0,0,1,0.3860,NR,0,999.0000
71,1,71,174.4005,1.5998,animal,1,1,1,0.3008,NR,0,999.0000
72,1,72,176.0005,1.6007,animal,0,0,1,0.3033,NR,0,999.0000
73,1,73,177.6014,1.5987,animal,0,0,1,0.3557,NR,0,999.0000
74,1,74,179.2003,1.6009,animal,1,1,1,0.3356,NR,0,999.0000
75,1,75,180.8014,1.5989,animal,0,0,1,0.3147,NR,0,999.0000
76,1,76,182.4005,1.5996,animal,1,1,1,0.3648,NR,0,999.0000
77,1,77,184.0093,9.9917,rest,0,NR,1,999.0000,NR,1,0.0000
78,1,78,194.0012,1.6001,fruitveg,0,NR,0,999.0000,0,1,0.0954
79,1,79,195.6015,1.5995,fruitveg,0,0,1,0.4293,NR,0,999.0000
80,1,80,197.2011,1.6000,fruitveg,1,1,1,0.4097,NR,0,999.0000
81,1,81,198.8014,1.5995,fruitveg,0,0,1,0.3009,NR,0,999.0000
82,1,82,200.4010,1.5994,fruitveg,1,1,1,0.3196,NR,0,999.0000
83,1,83,202.0006,1.6001,fruitveg,0,0,1,0.2605,NR,0,999.0000
84,1,84,203.6008,1.5997,fruitveg,0,0,1,0.3863,NR,0,999.0000
85,1,85,205.2007,1.6005,fruitveg,0,0,1,0.3638,NR,0,999.0000
86,1,86,206.8014,1.5992,fruitveg,0,0,1,0.3988,NR,0,999.0000
87,1,87,208.4008,1.6005,fruitveg,1,1,1,0.3011,NR,0,999.0000
88,1,88,210.0099,9.9907,rest,0,NR,1,999.0000,NR,1,0.0000
89,1,89,220.0008,1.5993,fruitveg,0,0,1,0.4488,NR,0,999.0000
90,1,90,221.6002,1.6006,fruitveg,0,0,1,0.3448,NR,0,999.0000
91,1,91,223.2010,1.5991,fruitveg,0,0,1,0.3450,NR,0,999.0000
92,1,92,224.8004,1.5998,fruitveg,0,0,1,0.3700,NR,0,999.0000
93,1,93,226.4003,1.6002,fruitveg,0,0,1,0.3881,NR,0,999.0000
94,1,94,228.0007,1.6001,fruitveg,1,1,1,0.2870,NR,0,999.0000
95,1,95,229.6009,1.6002,fruitveg,0,0,1,0.3171,NR,0,999.0000
96,1,96,231.2013,1.5997,fruitveg,1,1,1,0.3936,NR,0,999.0000
97,1,97,232.8012,1.6003,fruitveg,0,0,1,0.3968,NR,0,999.0000
98,1,98,234.4016,1.5998,fruitveg,1,0,0,0.5426,NR,0,999.0000
99,1,99,236.0105,9.9898,rest,0,NR,1,999.0000,NR,1,0.0000
100,1,100,246.0005,1.6000,tool,0,0,1,0.4267,NR,0,999.0000
101,1,101,247.6007,1.5993,tool,0,0,1,0.4561,NR,0,999.0000
102,1,102,249.2003,1.6011,tool,1,1,1,0.3608,NR,0,999.0000
103,1,103,250.8015,1.5997,tool,0,0,1,0.2663,NR,0,999.0000
104,1,104,252.4014,1.5993,tool,1,1,1,0.3223,NR,0,999.0000
105,1,105,254.0009,1.5992,tool,0,0,1,0.3232,NR,0,999.0000
106,1,106,255.6002,1.6000,tool,0,0,1,0.4679,NR,0,999.0000
107,1,107,257.2004,1.6001,tool,0,0,1,0.3924,NR,0,999.0000
108,1,108,258.8007,1.6002,tool,1,1,1,0.4491,NR,0,999.0000
109,1,109,260.4011,1.5994,tool,0,0,1,0.3699,NR,0,999.0000
110,1,110,262.0111,9.9899,rest,0,NR,1,999.0000,NR,1,0.0000
111,1,111,272.0012,1.5990,face,0,0,1,0.5551,NR,0,999.0000
112,1,112,273.6004,1.6005,face,0,0,1,0.4496,NR,0,999.0000
113,1,113,275.2011,1.6002,face,0,0,1,0.3890,NR,0,999.0000
114,1,114,276.8014,1.5990,face,0,0,1,0.3776,NR,0,999.0000
115,1,115,278.4006,1.5994,face,1,1,1,0.3125,NR,0,999.0000
116,1,116,280.0003,1.6000,face,0,0,1,0.3773,NR,0,999.0000
117,1,117,281.6004,1.6001,face,1,1,1,0.3720,NR,0,999.0000
118,1,118,283.2007,1.6001,face,0,0,1,0.3268,NR,0,999.0000
119,1,119,284.8010,1.6004,face,0,1,0,0.4214,NR,0,999.0000
120,1,120,286.4016,1.5998,face,1,1,1,0.3457,NR,0,999.0000
121,1,121,288.0117,9.9885,rest,0,NR,1,999.0000,NR,1,0.0000
122,1,122,298.0004,1.6010,animal,0,0,1,0.4432,NR,0,999.0000
123,1,123,299.6015,1.5986,animal,0,0,1,0.3541,NR,0,999.0000
124,1,124,301.2003,1.6006,animal,1,1,1,0.3024,NR,0,999.0000
125,1,125,302.8011,1.6003,animal,0,0,1,0.3110,NR,0,999.0000
126,1,126,304.4016,1.5988,animal,0,0,1,0.4378,NR,0,999.0000
127,1,127,306.0005,1.5997,animal,0,0,1,0.3972,NR,0,999.0000
128,1,128,307.6004,1.5997,animal,0,NR,0,999.0000,NR,0,999.0000
129,1,129,309.2002,1.6009,animal,1,1,1,0.3417,NR,0,999.0000
130,1,130,310.8013,1.5990,animal,0,0,1,0.3579,NR,0,999.0000
131,1,131,312.4005,1.5998,animal,1,1,1,0.3969,NR,0,999.0000
132,1,132,314.0122,9.9880,rest,0,NR,1,999.0000,NR,1,0.0000
133,1,133,324.0004,1.5998,fruitveg,0,0,1,0.4206,NR,0,999.0000
134,1,134,325.6003,1.5999,fruitveg,0,0,1,0.3717,NR,0,999.0000
135,1,135,327.2004,1.5997,fruitveg,0,0,1,0.3909,NR,0,999.0000
136,1,136,328.8003,1.6004,fruitveg,1,1,1,0.3484,NR,0,999.0000
137,1,137,330.4009,1.6001,fruitveg,0,0,1,0.3376,NR,0,999.0000
138,1,138,332.0011,1.6000,fruitveg,1,1,1,0.4877,NR,0,999.0000
139,1,139,333.6013,1.5995,fruitveg,0,0,1,0.3456,NR,0,999.0000
140,1,140,335.2010,1.6003,fruitveg,0,0,1,0.4626,NR,0,999.0000
141,1,141,336.8015,1.5990,fruitveg,0,0,1,0.4074,NR,0,999.0000
142,1,142,338.4007,1.6003,fruitveg,1,1,1,0.3692,NR,0,999.0000
143,1,143,340.0128,9.9872,rest,0,NR,1,999.0000,NR,1,0.0000
144,1,144,350.0003,1.6009,virtualtown,0,NR,0,999.0000,0,1,0.0206
145,1,145,351.6014,1.5999,virtualtown,0,0,1,0.4685,NR,0,999.0000
146,1,146,353.2015,1.5987,virtualtown,1,1,1,0.3435,NR,0,999.0000
147,1,147,354.8003,1.6002,virtualtown,0,0,1,0.2886,NR,0,999.0000
148,1,148,356.4007,1.6005,virtualtown,0,1,0,0.5214,NR,0,999.0000
149,1,149,358.0014,1.5991,virtualtown,1,1,1,0.3169,NR,0,999.0000
150,1,150,359.6007,1.6005,virtualtown,0,0,1,0.4698,NR,0,999.0000
151,1,151,361.2014,1.5995,virtualtown,1,1,1,0.3814,NR,0,999.0000
152,1,152,362.8011,1.5994,virtualtown,0,NR,0,999.0000,0,1,0.0381
153,1,153,364.4007,1.5999,virtualtown,0,0,1,0.4066,NR,0,999.0000
154,1,154,366.0134,9.9875,rest,0,NR,1,999.0000,NR,1,0.0000
155,1,155,376.0012,1.5994,tool,0,0,1,0.5645,NR,0,999.0000
156,1,156,377.6007,1.6001,tool,0,0,1,0.4719,NR,0,999.0000
157,1,157,379.2011,1.5994,tool,0,0,1,0.3983,NR,0,999.0000
158,1,158,380.8006,1.5997,tool,1,1,1,0.4126,NR,0,999.0000
159,1,159,382.4006,1.5996,tool,0,0,1,0.4541,NR,0,999.0000
160,1,160,384.0003,1.5998,tool,0,0,1,0.3545,NR,0,999.0000
161,1,161,385.6004,1.6008,tool,1,1,1,0.3354,NR,0,999.0000
162,1,162,387.2013,1.5988,tool,0,0,1,0.3185,NR,0,999.0000
163,1,163,388.8003,1.6004,tool,0,0,1,0.4459,NR,0,999.0000
164,1,164,390.4009,1.6004,tool,1,1,1,0.5218,NR,0,999.0000
165,1,165,392.0140,9.9871,rest,0,NR,1,999.0000,NR,1,0.0000
166,1,166,402.0013,1.5990,animal,0,0,1,0.5026,NR,0,999.0000
167,1,167,403.6005,1.5998,animal,0,0,1,0.5156,NR,0,999.0000
168,1,168,405.2006,1.6004,animal,0,0,1,0.3856,NR,0,999.0000
169,1,169,406.8012,1.5990,animal,1,1,1,0.3076,NR,0,999.0000
170,1,170,408.4004,1.6001,animal,0,0,1,0.2736,NR,0,999.0000
171,1,171,410.0008,1.6004,animal,1,1,1,0.4139,NR,0,999.0000
172,1,172,411.6013,1.5991,animal,0,0,1,0.3206,NR,0,999.0000
173,1,173,413.2006,1.6001,animal,0,0,1,0.4186,NR,0,999.0000
174,1,174,414.8009,1.5994,animal,1,1,1,0.3639,NR,0,999.0000
175,1,175,416.4004,1.6003,animal,0,0,1,0.4246,NR,0,999.0000
176,1,176,418.0147,9.9866,rest,0,NR,1,999.0000,NR,1,0.0000
177,1,177,428.0015,1.5990,virtualtown,0,0,1,0.3970,NR,0,999.0000
178,1,178,429.6007,1.6001,virtualtown,0,NR,0,999.0000,0,1,0.0501
179,1,179,431.2011,1.5990,virtualtown,1,1,1,0.5049,NR,0,999.0000
180,1,180,432.8002,1.6004,virtualtown,0,0,1,0.5693,NR,0,999.0000
181,1,181,434.4009,1.6001,virtualtown,1,1,1,0.4109,NR,0,999.0000
182,1,182,436.0011,1.5996,virtualtown,0,0,1,0.4258,NR,0,999.0000
183,1,183,437.6009,1.6004,virtualtown,0,0,1,0.5828,NR,0,999.0000
184,1,184,439.2015,1.5998,virtualtown,0,0,1,0.5206,NR,0,999.0000
185,1,185,440.8015,1.5988,virtualtown,0,0,1,0.4297,NR,0,999.0000
186,1,186,442.4005,1.6003,virtualtown,1,1,1,0.3596,NR,0,999.0000
187,1,187,444.0152,9.9849,rest,0,NR,1,999.0000,NR,1,0.0000
188,1,188,454.0004,1.6004,tool,0,0,1,0.5507,NR,0,999.0000
189,1,189,455.6010,1.5993,tool,0,0,1,0.4519,NR,0,999.0000
190,1,190,457.2004,1.6005,tool,1,1,1,0.3805,NR,0,999.0000
191,1,191,458.8011,1.6002,tool,0,1,0,0.4136,0,1,0.1919
192,1,192,460.4015,1.5995,tool,0,0,1,0.3071,NR,0,999.0000
193,1,193,462.0012,1.5993,tool,1,1,1,0.3653,NR,0,999.0000
194,1,194,463.6007,1.6004,tool,0,0,1,0.3514,NR,0,999.0000
195,1,195,465.2013,1.6001,tool,0,0,1,0.3791,NR,0,999.0000
196,1,196,466.8016,1.5994,tool,1,1,1,0.4648,NR,0,999.0000
197,1,197,468.4011,1.5995,tool,0,0,1,0.3903,NR,0,999.0000
198,1,198,470.0159,9.9854,rest,0,NR,1,999.0000,NR,1,0.0000
199,1,199,480.0015,1.5987,tool,0,0,1,0.5568,NR,0,999.0000
200,1,200,481.6004,1.6006,tool,0,0,1,0.3870,NR,0,999.0000
201,1,201,483.2012,1.5998,tool,1,1,1,0.4244,NR,0,999.0000
202,1,202,484.8012,1.6002,tool,0,1,0,0.4870,0,1,0.1428
203,1,203,486.4016,1.5994,tool,1,1,1,0.4917,NR,0,999.0000
204,1,204,488.0011,1.5996,tool,0,0,1,0.5853,NR,0,999.0000
205,1,205,489.6009,1.5999,tool,0,NR,0,999.0000,0,1,0.0975
206,1,206,491.2010,1.6003,tool,1,1,1,0.4796,NR,0,999.0000
207,1,207,492.8014,1.5997,tool,0,1,0,0.4838,NR,0,999.0000
208,1,208,494.4014,1.5990,tool,0,0,1,0.3230,NR,0,999.0000
209,1,209,496.0165,9.9848,rest,0,NR,1,999.0000,NR,1,0.0000
210,1,210,506.0015,1.5987,virtualtown,0,0,1,0.4085,NR,0,999.0000
211,1,211,507.6004,1.5998,virtualtown,0,0,1,0.3813,NR,0,999.0000
212,1,212,509.2003,1.6009,virtualtown,1,1,1,0.3044,NR,0,999.0000
213,1,213,510.8014,1.5994,virtualtown,0,0,1,0.2496,NR,0,999.0000
214,1,214,512.4010,1.6002,virtualtown,0,1,0,0.4728,NR,0,999.0000
215,1,215,514.0014,1.5990,virtualtown,1,1,1,0.3111,NR,0,999.0000
216,1,216,515.6006,1.6006,virtualtown,0,0,1,0.2970,NR,0,999.0000
217,1,217,517.2014,1.5996,virtualtown,0,0,1,0.4148,NR,0,999.0000
218,1,218,518.8011,1.5990,virtualtown,0,0,1,0.4002,NR,0,999.0000
219,1,219,520.4003,1.6006,virtualtown,1,1,1,0.4414,NR,0,999.0000
220,1,220,522.0171,9.9842,rest,0,NR,1,999.0000,NR,1,0.0000
221,2,1,12.0020,1.5992,animal,0,0,1,0.3776,NR,0,999.0000
222,2,2,13.6015,1.5987,animal,0,0,1,0.3521,NR,0,999.0000
223,2,3,15.2003,1.6009,animal,0,0,1,0.3370,NR,0,999.0000
224,2,4,16.8014,1.5999,animal,0,0,1,0.4309,NR,0,999.0000
225,2,5,18.4016,1.5991,animal,0,0,1,0.4060,NR,0,999.0000
226,2,6,20.0008,1.5996,animal,1,1,1,0.3032,NR,0,999.0000
227,2,7,21.6006,1.5999,animal,0,0,1,0.3766,NR,0,999.0000
228,2,8,23.2007,1.6004,animal,1,0,0,0.5205,NR,0,999.0000
229,2,9,24.8013,1.6001,animal,0,0,1,0.3907,NR,0,999.0000
230,2,10,26.4016,1.5988,animal,1,1,1,0.3826,NR,0,999.0000
231,2,11,28.0172,9.9836,rest,0,NR,1,999.0000,NR,1,0.0000
232,2,12,38.0010,1.5999,tool,0,0,1,0.3154,NR,0,999.0000
233,2,13,39.6012,1.6000,tool,0,0,1,0.3464,NR,0,999.0000
234,2,14,41.2013,1.6000,tool,0,0,1,0.3624,NR,0,999.0000
235,2,15,42.8016,1.5996,tool,1,1,1,0.3370,NR,0,999.0000
236,2,16,44.4013,1.5998,tool,0,0,1,0.2894,NR,0,999.0000
237,2,17,46.0013,1.5994,tool,1,1,1,0.3628,NR,0,999.0000
238,2,18,47.6009,1.6003,tool,0,0,1,0.3789,NR,0,999.0000
239,2,19,49.2014,1.5990,tool,1,1,1,0.3995,NR,0,999.0000
240,2,20,50.8007,1.6004,tool,0,0,1,0.4023,NR,0,999.0000
241,2,21,52.4012,1.5995,tool,0,1,0,0.4373,NR,0,999.0000
242,2,22,54.0177,9.9828,rest,0,NR,1,999.0000,NR,1,0.0000
243,2,23,64.0008,1.6002,tool,0,NR,0,999.0000,0,1,0.0444
244,2,24,65.6012,1.5996,tool,0,0,1,0.3297,NR,0,999.0000
245,2,25,67.2010,1.5992,tool,0,0,1,0.3867,NR,0,999.0000
246,2,26,68.8004,1.6004,tool,1,1,1,0.3122,NR,0,999.0000
247,2,27,70.4011,1.5991,tool,0,0,1,0.2448,NR,0,999.0000
248,2,28,72.0004,1.6009,tool,1,1,1,0.3824,NR,0,999.0000
249,2,29,73.6014,1.5998,tool,0,0,1,0.2673,NR,0,999.0000
250,2,30,75.2014,1.5988,tool,0,0,1,0.3522,NR,0,999.0000
251,2,31,76.8004,1.6003,tool,1,1,1,0.3230,NR,0,999.0000
252,2,32,78.4010,1.5992,tool,0,0,1,0.3275,NR,0,999.0000
253,2,33,80.0184,9.9823,rest,0,NR,1,999.0000,NR,1,0.0000
254,2,34,90.0009,1.6003,face,0,0,1,0.2947,NR,0,999.0000
255,2,35,91.6013,1.5998,face,0,0,1,0.3723,NR,0,999.0000
256,2,36,93.2013,1.6001,face,0,0,1,0.3529,NR,0,999.0000
257,2,37,94.8016,1.5997,face,1,1,1,0.3670,NR,0,999.0000
258,2,38,96.4015,1.5988,face,0,0,1,0.2338,NR,0,999.0000
259,2,39,98.0005,1.5996,face,1,1,1,0.3626,NR,0,999.0000
260,2,40,99.6002,1.6011,face,0,0,1,0.3118,NR,0,999.0000
261,2,41,101.2015,1.5987,face,1,1,1,0.3618,NR,0,999.0000
262,2,42,102.8005,1.6005,face,0,0,1,0.2869,NR,0,999.0000
263,2,43,104.4012,1.6000,face,0,0,1,0.4167,NR,0,999.0000
264,2,44,106.0189,9.9813,rest,0,NR,1,999.0000,NR,1,0.0000
265,2,45,116.0005,1.5996,virtualtown,0,0,1,0.3490,NR,0,999.0000
266,2,46,117.6002,1.6007,virtualtown,0,0,1,0.4083,NR,0,999.0000
267,2,47,119.2011,1.6002,virtualtown,0,0,1,0.4814,NR,0,999.0000
268,2,48,120.8015,1.5987,virtualtown,1,1,1,0.3253,NR,0,999.0000
269,2,49,122.4004,1.5998,virtualtown,0,0,1,0.2981,NR,0,999.0000
270,2,50,124.0003,1.6009,virtualtown,0,0,1,0.4003,NR,0,999.0000
271,2,51,125.6014,1.5988,virtualtown,1,1,1,0.3504,NR,0,999.0000
272,2,52,127.2004,1.6008,virtualtown,0,0,1,0.3817,NR,0,999.0000
273,2,53,128.8013,1.5989,virtualtown,0,NR,0,999.0000,0,1,0.0664
274,2,54,130.4005,1.6001,virtualtown,1,1,1,0.2617,NR,0,999.0000
275,2,55,132.0196,9.9812,rest,0,NR,1,999.0000,NR,1,0.0000
276,2,56,142.0010,1.6001,tool,0,0,1,0.5479,NR,0,999.0000
277,2,57,143.6013,1.5993,tool,0,0,1,0.5664,NR,0,999.0000
278,2,58,145.2008,1.6002,tool,1,1,1,0.3870,NR,0,999.0000
279,2,59,146.8012,1.5998,tool,0,0,1,0.3316,NR,0,999.0000
280,2,60,148.4012,1.5993,tool,0,0,1,0.3984,NR,0,999.0000
281,2,61,150.0007,1.5999,tool,0,0,1,0.3415,NR,0,999.0000
282,2,62,151.6008,1.5995,tool,1,1,1,0.3276,NR,0,999.0000
283,2,63,153.2005,1.6002,tool,0,0,1,0.2011,NR,0,999.0000
284,2,64,154.8009,1.6002,tool,0,0,1,0.4998,NR,0,999.0000
285,2,65,156.4013,1.5999,tool,1,1,1,0.2884,NR,0,999.0000
286,2,66,158.0201,9.9803,rest,0,NR,1,999.0000,NR,1,0.0000
287,2,67,168.0006,1.5996,face,0,0,1,0.3716,NR,0,999.0000
288,2,68,169.6004,1.6007,face,0,0,1,0.3115,NR,0,999.0000
289,2,69,171.2012,1.5999,face,0,0,1,0.3851,NR,0,999.0000
290,2,70,172.8013,1.5993,face,1,1,1,0.3412,NR,0,999.0000
291,2,71,174.4009,1.6005,face,0,0,1,0.2232,NR,0,999.0000
292,2,72,176.0016,1.5986,face,1,1,1,0.4094,NR,0,999.0000
293,2,73,177.6004,1.5999,face,0,0,1,0.2525,NR,0,999.0000
294,2,74,179.2005,1.6002,face,0,0,1,0.5868,NR,0,999.0000
295,2,75,180.8008,1.5997,face,1,1,1,0.4113,NR,0,999.0000
296,2,76,182.4007,1.5994,face,0,0,1,0.3044,NR,0,999.0000
297,2,77,184.0038,9.9963,rest,0,NR,1,999.0000,NR,1,0.0000
298,2,78,194.0004,1.5999,tool,0,0,1,0.4765,NR,0,999.0000
299,2,79,195.6005,1.6001,tool,0,0,1,0.3674,NR,0,999.0000
300,2,80,197.2007,1.5998,tool,1,1,1,0.2907,NR,0,999.0000
301,2,81,198.8008,1.6001,tool,0,0,1,0.2288,NR,0,999.0000
302,2,82,200.4010,1.5992,tool,0,0,1,0.3732,NR,0,999.0000
303,2,83,202.0004,1.6001,tool,0,0,1,0.3829,NR,0,999.0000
304,2,84,203.6007,1.6000,tool,0,0,1,0.3920,NR,0,999.0000
305,2,85,205.2008,1.5999,tool,1,1,1,0.2860,NR,0,999.0000
306,2,86,206.8010,1.5993,tool,0,0,1,0.3239,NR,0,999.0000
307,2,87,208.4004,1.6007,tool,1,0,0,0.3194,1,1,0.0691
308,2,88,210.0044,9.9965,rest,0,NR,1,999.0000,NR,1,0.0000
309,2,89,220.0011,1.6000,virtualtown,0,0,1,0.3828,NR,0,999.0000
310,2,90,221.6013,1.5999,virtualtown,0,1,0,0.4706,NR,0,999.0000
311,2,91,223.2014,1.5992,virtualtown,1,1,1,0.3455,NR,0,999.0000
312,2,92,224.8009,1.5996,virtualtown,0,0,1,0.2436,NR,0,999.0000
313,2,93,226.4006,1.6005,virtualtown,1,1,1,0.5465,NR,0,999.0000
314,2,94,228.0014,1.5998,virtualtown,0,0,1,0.3223,NR,0,999.0000
315,2,95,229.6013,1.5996,virtualtown,1,1,1,0.4087,NR,0,999.0000
316,2,96,231.2012,1.5991,virtualtown,0,0,1,0.3886,NR,0,999.0000
317,2,97,232.8005,1.6006,virtualtown,0,0,1,0.4127,NR,0,999.0000
318,2,98,234.4013,1.5989,virtualtown,0,1,0,0.5603,NR,0,999.0000
319,2,99,236.0054,9.9955,rest,0,NR,1,999.0000,NR,1,0.0000
320,2,100,246.0011,1.6003,face,0,0,1,0.4465,NR,0,999.0000
321,2,101,247.6016,1.5985,face,0,0,1,0.4334,NR,0,999.0000
322,2,102,249.2003,1.6006,face,0,0,1,0.3840,NR,0,999.0000
323,2,103,250.8011,1.5996,face,0,0,1,0.3941,NR,0,999.0000
324,2,104,252.4008,1.5992,face,1,1,1,0.3330,NR,0,999.0000
325,2,105,254.0003,1.6000,face,0,0,1,0.2100,NR,0,999.0000
326,2,106,255.6005,1.6003,face,1,1,1,0.3446,NR,0,999.0000
327,2,107,257.2009,1.5994,face,0,0,1,0.2339,NR,0,999.0000
328,2,108,258.8005,1.5997,face,0,0,1,0.4021,NR,0,999.0000
329,2,109,260.4004,1.5998,face,1,1,1,0.3940,NR,0,999.0000
330,2,110,262.0060,9.9941,rest,0,NR,1,999.0000,NR,1,0.0000
331,2,111,272.0002,1.6001,fruitveg,0,0,1,0.4211,NR,0,999.0000
332,2,112,273.6006,1.5996,fruitveg,0,0,1,0.3047,NR,0,999.0000
333,2,113,275.2004,1.6001,fruitveg,1,1,1,0.3808,NR,0,999.0000
334,2,114,276.8007,1.5999,fruitveg,0,0,1,0.2888,NR,0,999.0000
335,2,115,278.4007,1.6007,fruitveg,1,1,1,0.3654,NR,0,999.0000
336,2,116,280.0016,1.5997,fruitveg,0,0,1,0.2357,NR,0,999.0000
337,2,117,281.6015,1.5994,fruitveg,1,1,1,0.4561,NR,0,999.0000
338,2,118,283.2010,1.5997,fruitveg,0,0,1,0.3423,NR,0,999.0000
339,2,119,284.8009,1.6003,fruitveg,0,0,1,0.3942,NR,0,999.0000
340,2,120,286.4014,1.5991,fruitveg,0,0,1,0.3999,NR,0,999.0000
341,2,121,288.0066,9.9935,rest,0,NR,1,999.0000,NR,1,0.0000
342,2,122,298.0002,1.6007,fruitveg,0,0,1,0.5494,NR,0,999.0000
343,2,123,299.6011,1.5994,fruitveg,0,0,1,0.4330,NR,0,999.0000
344,2,124,301.2007,1.6006,fruitveg,1,1,1,0.3644,NR,0,999.0000
345,2,125,302.8015,1.5999,fruitveg,0,0,1,0.2022,NR,0,999.0000
346,2,126,304.4015,1.5995,fruitveg,0,0,1,0.4119,NR,0,999.0000
347,2,127,306.0013,1.5993,fruitveg,1,1,1,0.3053,NR,0,999.0000
348,2,128,307.6007,1.6004,fruitveg,0,0,1,0.2059,NR,0,999.0000
349,2,129,309.2012,1.5997,fruitveg,0,0,1,0.4737,NR,0,999.0000
350,2,130,310.8011,1.5992,fruitveg,0,0,1,0.3727,NR,0,999.0000
351,2,131,312.4004,1.6007,fruitveg,1,1,1,0.3750,NR,0,999.0000
352,2,132,314.0072,9.9935,rest,0,NR,1,999.0000,NR,1,0.0000
353,2,133,324.0010,1.6000,animal,0,0,1,0.3820,NR,0,999.0000
354,2,134,325.6012,1.5995,animal,0,0,1,0.3077,NR,0,999.0000
355,2,135,327.2010,1.5999,animal,0,0,1,0.3683,NR,0,999.0000
356,2,136,328.8011,1.6002,animal,1,1,1,0.3323,NR,0,999.0000
357,2,137,330.4015,1.5996,animal,0,0,1,0.2170,NR,0,999.0000
358,2,138,332.0013,1.5996,animal,0,0,1,0.4160,NR,0,999.0000
359,2,139,333.6011,1.5990,animal,1,1,1,0.4338,NR,0,999.0000
360,2,140,335.2003,1.6007,animal,0,0,1,0.2178,NR,0,999.0000
361,2,141,336.8011,1.5998,animal,1,1,1,0.3759,NR,0,999.0000
362,2,142,338.4011,1.5999,animal,0,0,1,0.3682,NR,0,999.0000
363,2,143,340.0079,9.9922,rest,0,NR,1,999.0000,NR,1,0.0000
364,2,144,350.0003,1.6006,fruitveg,0,0,1,0.4783,NR,0,999.0000
365,2,145,351.6010,1.6001,fruitveg,0,0,1,0.4185,NR,0,999.0000
366,2,146,353.2013,1.5989,fruitveg,0,0,1,0.3442,NR,0,999.0000
367,2,147,354.8004,1.6006,fruitveg,0,0,1,0.3908,NR,0,999.0000
368,2,148,356.4011,1.5999,fruitveg,0,0,1,0.4146,NR,0,999.0000
369,2,149,358.0012,1.5992,fruitveg,1,1,1,0.2732,NR,0,999.0000
370,2,150,359.6006,1.5996,fruitveg,0,0,1,0.4036,NR,0,999.0000
371,2,151,361.2004,1.6002,fruitveg,1,1,1,0.4881,NR,0,999.0000
372,2,152,362.8009,1.6006,fruitveg,0,0,1,0.2334,NR,0,999.0000
373,2,153,364.4016,1.5993,fruitveg,1,1,1,0.3961,NR,0,999.0000
374,2,154,366.0085,9.9924,rest,0,NR,1,999.0000,NR,1,0.0000
375,2,155,376.0011,1.5990,animal,0,0,1,0.4510,NR,0,999.0000
376,2,156,377.6003,1.6010,animal,0,0,1,0.3251,NR,0,999.0000
377,2,157,379.2014,1.5993,animal,1,1,1,0.2994,NR,0,999.0000
378,2,158,380.8009,1.5991,animal,0,0,1,0.2251,NR,0,999.0000
379,2,159,382.4002,1.6005,animal,0,0,1,0.3983,NR,0,999.0000
380,2,160,384.0009,1.6002,animal,1,1,1,0.3692,NR,0,999.0000
381,2,161,385.6013,1.5989,animal,0,0,1,0.2639,NR,0,999.0000
382,2,162,387.2004,1.6004,animal,1,1,1,0.3549,NR,0,999.0000
383,2,163,388.8010,1.6003,animal,0,0,1,0.2718,NR,0,999.0000
384,2,164,390.4015,1.5993,animal,0,0,1,0.4281,NR,0,999.0000
385,2,165,392.0091,9.9923,rest,0,NR,1,999.0000,NR,1,0.0000
386,2,166,402.0016,1.5989,virtualtown,0,0,1,0.5370,NR,0,999.0000
387,2,167,403.6008,1.6006,virtualtown,0,0,1,0.4181,NR,0,999.0000
388,2,168,405.2015,1.5990,virtualtown,1,1,1,0.3354,NR,0,999.0000
389,2,169,406.8007,1.5994,virtualtown,0,NR,0,999.0000,0,1,0.0254
390,2,170,408.4003,1.6004,virtualtown,0,0,1,0.5217,NR,0,999.0000
391,2,171,410.0008,1.5997,virtualtown,0,0,1,0.3998,NR,0,999.0000
392,2,172,411.6007,1.5994,virtualtown,0,0,1,0.4224,NR,0,999.0000
393,2,173,413.2003,1.6010,virtualtown,1,1,1,0.3601,NR,0,999.0000
394,2,174,414.8015,1.5987,virtualtown,0,0,1,0.2443,NR,0,999.0000
395,2,175,416.4004,1.5997,virtualtown,1,0,0,0.4555,NR,0,999.0000
396,2,176,418.0098,9.9918,rest,0,NR,1,999.0000,NR,1,0.0000
397,2,177,428.0019,1.5985,fruitveg,0,0,1,0.5184,NR,0,999.0000
398,2,178,429.6006,2.4256,fruitveg,0,0,1,0.2611,NR,0,999.0000
399,2,179,432.0264,0.7748,fruitveg,0,NR,0,999.0000,0,1,0.5449
400,2,180,432.8014,1.5995,fruitveg,1,NR,0,999.0000,NR,0,999.0000
401,2,181,434.4010,1.5998,fruitveg,0,0,1,0.4039,NR,0,999.0000
402,2,182,436.0010,1.6000,fruitveg,1,1,1,0.3668,NR,0,999.0000
403,2,183,437.6012,1.5997,fruitveg,0,0,1,0.2459,NR,0,999.0000
404,2,184,439.2010,1.6000,fruitveg,0,0,1,0.3338,NR,0,999.0000
405,2,185,440.8013,1.5995,fruitveg,1,1,1,0.3298,NR,0,999.0000
406,2,186,442.4010,1.5991,fruitveg,0,0,1,0.2889,NR,0,999.0000
407,2,187,444.0104,9.9910,rest,0,NR,1,999.0000,NR,1,0.0000
408,2,188,454.0016,1.5997,virtualtown,0,0,1,0.3985,NR,0,999.0000
409,2,189,455.6016,1.5995,virtualtown,0,0,1,0.4004,NR,0,999.0000
410,2,190,457.2013,1.5993,virtualtown,1,1,1,0.3550,NR,0,999.0000
411,2,191,458.8008,1.5995,virtualtown,0,0,1,0.2073,NR,0,999.0000
412,2,192,460.4005,1.6010,virtualtown,0,0,1,0.4348,NR,0,999.0000
413,2,193,462.0016,1.5988,virtualtown,0,0,1,0.3828,NR,0,999.0000
414,2,194,463.6006,1.5996,virtualtown,1,1,1,0.3579,NR,0,999.0000
415,2,195,465.2004,1.6006,virtualtown,0,0,1,0.2728,NR,0,999.0000
416,2,196,466.8012,1.5991,virtualtown,1,0,0,0.4717,NR,0,999.0000
417,2,197,468.4005,1.5996,virtualtown,0,0,1,0.2211,NR,0,999.0000
418,2,198,470.0110,9.9899,rest,0,NR,1,999.0000,NR,1,0.0000
419,2,199,480.0012,1.5992,animal,0,0,1,0.4736,NR,0,999.0000
420,2,200,481.6006,1.6004,animal,0,0,1,0.3290,NR,0,999.0000
421,2,201,483.2012,1.5997,animal,0,0,1,0.5233,NR,0,999.0000
422,2,202,484.8011,1.6000,animal,0,0,1,0.5134,NR,0,999.0000
423,2,203,486.4013,1.5993,animal,1,1,1,0.3841,NR,0,999.0000
424,2,204,488.0008,1.5999,animal,0,0,1,0.2344,NR,0,999.0000
425,2,205,489.6009,1.5993,animal,1,1,1,0.3812,NR,0,999.0000
426,2,206,491.2004,1.6010,animal,0,0,1,0.1082,NR,0,999.0000
427,2,207,492.8016,1.5991,animal,0,0,1,0.2844,NR,0,999.0000
428,2,208,494.4008,1.5996,animal,1,1,1,0.3276,NR,0,999.0000
429,2,209,496.0117,9.9896,rest,0,NR,1,999.0000,NR,1,0.0000
430,2,210,506.0015,1.5998,face,0,0,1,0.3925,NR,0,999.0000
431,2,211,507.6014,1.5999,face,0,0,1,0.4420,NR,0,999.0000
432,2,212,509.2015,1.5994,face,0,0,1,0.3525,NR,0,999.0000
433,2,213,510.8011,1.6002,face,1,1,1,0.2657,NR,0,999.0000
434,2,214,512.4015,1.5996,face,0,0,1,0.2237,NR,0,999.0000
435,2,215,514.0013,1.5990,face,0,0,1,0.3177,NR,0,999.0000
436,2,216,515.6004,1.5999,face,1,1,1,0.2864,NR,0,999.0000
437,2,217,517.2005,1.5998,face,0,0,1,0.2773,NR,0,999.0000
438,2,218,518.8004,1.6000,face,0,0,1,0.4034,NR,0,999.0000
439,2,219,520.4006,1.5996,face,1,1,1,0.3853,NR,0,999.0000
440,2,220,522.0123,9.9885,rest,0,NR,1,999.0000,NR,1,0.0000
