index,run,trial,onset,duration,cond,rep,resp,acc,respRT,ISIresp,ISIacc,ISIrespRT
1,1,1,12.0046,1.5966,fruitveg,0,NR,0,999.0000,0,1,0.1215
2,1,2,13.6030,1.5974,fruitveg,0,NR,0,0.3843,NR,0,999.0000
3,1,3,15.2006,1.5995,fruitveg,0,0,1,0.5053,NR,0,0.1906
4,1,4,16.8003,1.6003,fruitveg,1,1,1,0.4378,NR,0,0.5899
5,1,5,18.4009,1.6005,fruitveg,0,0,1,0.3235,NR,0,999.0000
6,1,6,20.0015,1.5988,fruitveg,1,1,1,0.3568,NR,0,999.0000
7,1,7,21.6004,1.6000,fruitveg,0,NR,0,0.3919,NR,0,999.0000
8,1,8,23.2006,1.6007,fruitveg,1,1,1,0.5266,NR,0,0.1918
9,1,9,24.8015,1.5988,fruitveg,0,0,1,0.5121,NR,0,0.5910
10,1,10,26.4006,1.6008,fruitveg,0,0,1,0.5777,NR,0,999.0000
11,1,11,28.0166,9.9845,rest,0,NR,1,7.9539,NR,1,0.0000
12,1,12,38.0013,1.5988,tool,0,NR,0,999.0000,0,1,0.0955
13,1,13,39.6003,1.6001,tool,0,0,1,0.4412,NR,0,999.0000
14,1,14,41.2006,1.5997,tool,1,1,1,0.3400,NR,0,0.1907
15,1,15,42.8005,1.6003,tool,0,0,1,0.2334,NR,0,0.5909
16,1,16,44.4010,1.5993,tool,1,1,1,0.3612,NR,0,999.0000
17,1,17,46.0005,1.6008,tool,0,0,1,0.4005,NR,0,999.0000
18,1,18,47.6015,1.5995,tool,1,1,1,0.3200,NR,0,999.0000
19,1,19,49.2012,1.6001,tool,0,0,1,0.3373,NR,0,0.1912
20,1,20,50.8015,1.5997,tool,0,NR,0,999.0000,0,1,0.0062
21,1,21,52.4014,1.5994,tool,0,0,1,0.5634,NR,0,999.0000
22,1,22,54.0171,9.9832,rest,0,NR,1,7.9444,NR,1,0.0000
23,1,23,64.0005,1.6001,face,0,0,1,0.4905,NR,0,999.0000
24,1,24,65.6008,1.5996,face,0,NR,0,0.3916,0,1,0.0045
25,1,25,67.2006,1.6008,face,1,1,1,0.4495,NR,0,0.1915
26,1,26,68.8016,1.5985,face,0,0,1,0.2597,NR,0,0.5920
27,1,27,70.4003,1.6006,face,0,1,0,0.3446,NR,0,999.0000
28,1,28,72.0011,1.5989,face,1,1,1,0.4264,NR,0,999.0000
29,1,29,73.6003,1.6002,face,0,0,1,0.3106,NR,0,999.0000
30,1,30,75.2006,1.5995,face,0,0,1,0.3681,NR,0,0.1923
31,1,31,76.8003,1.6002,face,1,1,1,0.3631,NR,0,0.5918
32,1,32,78.4007,1.5994,face,0,0,1,0.3854,NR,0,999.0000
33,1,33,80.0175,9.9835,rest,0,NR,1,7.9344,NR,1,0.0000
34,1,34,90.0013,1.6000,tool,0,NR,0,999.0000,0,1,0.0494
35,1,35,91.6015,1.5992,tool,0,0,1,0.4795,NR,0,999.0000
36,1,36,93.2009,1.5996,tool,0,0,1,0.4323,NR,0,0.1917
37,1,37,94.8006,1.6003,tool,1,1,1,0.3151,NR,0,0.5919
38,1,38,96.4011,1.5992,tool,0,0,1,0.2353,NR,0,999.0000
39,1,39,98.0005,1.5998,tool,1,0,0,0.3906,NR,0,999.0000
40,1,40,99.6004,1.6007,tool,0,0,1,0.5369,NR,0,999.0000
41,1,41,101.2013,1.5991,tool,0,0,1,0.5566,NR,0,0.1933
42,1,42,102.8007,1.5996,tool,0,0,1,0.4490,NR,0,0.5922
43,1,43,104.4005,1.6000,tool,1,1,1,0.2688,NR,0,999.0000
44,1,44,106.0181,9.9820,rest,0,NR,1,7.9253,NR,1,0.0000
45,1,45,116.0003,1.6009,fruitveg,0,0,1,0.4213,NR,0,999.0000
46,1,46,117.6015,1.5989,fruitveg,0,0,1,0.3891,NR,0,999.0000
47,1,47,119.2006,1.6001,fruitveg,1,1,1,0.2926,NR,0,0.1921
48,1,48,120.8009,1.5996,fruitveg,0,0,1,0.2422,NR,0,0.5919
49,1,49,122.4007,1.6005,fruitveg,0,0,1,0.3357,NR,0,999.0000
50,1,50,124.0013,1.5989,fruitveg,1,1,1,0.2953,NR,0,999.0000
51,1,51,125.6004,1.6005,fruitveg,0,0,1,0.2294,NR,0,999.0000
52,1,52,127.2012,1.5994,fruitveg,0,0,1,0.3917,NR,0,0.1923
53,1,53,128.8008,1.6001,fruitveg,0,0,1,0.3527,NR,0,0.5934
54,1,54,130.4010,1.5993,fruitveg,1,1,1,0.3955,NR,0,999.0000
55,1,55,132.0187,9.9820,rest,0,NR,1,7.9143,NR,1,0.0000
56,1,56,142.0009,1.5998,animal,0,0,1,0.3871,NR,0,999.0000
57,1,57,143.6009,1.5999,animal,0,0,1,0.4774,NR,0,999.0000
58,1,58,145.2010,1.5999,animal,1,1,1,0.3490,NR,0,0.1921
59,1,59,146.8011,1.5998,animal,0,0,1,0.3553,NR,0,0.5932
60,1,60,148.4011,1.5999,animal,1,1,1,0.3900,NR,0,999.0000
61,1,61,150.0012,1.5992,animal,0,0,1,0.2728,NR,0,999.0000
62,1,62,151.6006,1.5999,animal,0,0,1,0.5140,NR,0,999.0000
63,1,63,153.2007,1.5999,animal,1,1,1,0.4367,NR,0,0.2082
64,1,64,154.8008,1.5999,animal,0,0,1,0.5690,NR,0,0.5935
65,1,65,156.4009,1.5997,animal,0,1,0,0.5198,NR,0,999.0000
66,1,66,158.0193,9.9819,rest,0,NR,1,7.9036,NR,1,0.0000
67,1,67,168.0015,1.5986,face,0,0,1,0.5039,NR,0,999.0000
68,1,68,169.6003,1.6003,face,0,0,1,0.4552,NR,0,999.0000
69,1,69,171.2008,1.5994,face,0,0,1,0.4085,NR,0,0.1931
70,1,70,172.8004,1.6006,face,1,1,1,0.3596,NR,0,0.5940
71,1,71,174.4012,1.5993,face,0,0,1,0.2010,NR,0,999.0000
72,1,72,176.0007,1.5994,face,1,1,1,0.3664,NR,0,999.0000
73,1,73,177.6003,1.6006,face,0,0,1,0.2823,NR,0,999.0000
74,1,74,179.2011,1.5994,face,0,0,1,0.4941,NR,0,0.2011
75,1,75,180.8007,1.6005,face,0,0,1,0.4781,NR,0,0.6110
76,1,76,182.4014,1.5990,face,1,1,1,0.4322,NR,0,999.0000
77,1,77,184.0138,9.9871,rest,0,NR,1,7.9006,NR,1,0.0000
78,1,78,194.0012,1.5990,virtualtown,0,0,1,0.4289,NR,0,999.0000
79,1,79,195.6004,1.6000,virtualtown,0,0,1,0.4921,NR,0,999.0000
80,1,80,197.2005,1.6001,virtualtown,0,1,0,0.5135,NR,0,0.2094
81,1,81,198.8009,1.6000,virtualtown,1,NR,0,999.0000,1,1,0.1329
82,1,82,200.4011,1.5996,virtualtown,0,0,1,0.2764,NR,0,999.0000
83,1,83,202.0009,1.6000,virtualtown,1,1,1,0.3978,NR,0,999.0000
84,1,84,203.6010,1.6004,virtualtown,0,0,1,0.4778,NR,0,999.0000
85,1,85,205.2016,1.5992,virtualtown,0,0,1,0.5786,NR,0,0.2096
86,1,86,206.8009,1.6000,virtualtown,0,0,1,0.5479,NR,0,0.6036
87,1,87,208.4012,1.5991,virtualtown,1,1,1,0.3441,NR,0,999.0000
88,1,88,210.0054,9.9954,rest,0,NR,1,7.8975,NR,1,0.0000
89,1,89,220.0010,1.6000,animal,0,NR,0,999.0000,0,1,0.1828
90,1,90,221.6012,1.6001,animal,0,0,1,0.4782,NR,0,999.0000
91,1,91,223.2015,1.5986,animal,1,1,1,0.4929,NR,0,0.2014
92,1,92,224.8003,1.6000,animal,0,0,1,0.2149,NR,0,0.6122
93,1,93,226.4005,1.6004,animal,1,1,1,0.3703,NR,0,999.0000
94,1,94,228.0010,1.6003,animal,0,0,1,0.2255,NR,0,999.0000
95,1,95,229.6015,1.5992,animal,0,0,1,0.4091,NR,0,999.0000
96,1,96,231.2009,1.5993,animal,1,1,1,0.3839,NR,0,0.2032
97,1,97,232.8005,1.5996,animal,0,0,1,0.3980,NR,0,0.5970
98,1,98,234.4003,1.6011,animal,0,NR,0,999.0000,0,1,0.2068
99,1,99,236.0137,9.9873,rest,0,NR,1,7.8802,NR,1,0.0000
100,1,100,246.0012,1.5998,virtualtown,0,NR,0,0.0105,0,1,0.0219
101,1,101,247.6012,1.5993,virtualtown,0,0,1,0.4938,NR,0,999.0000
102,1,102,249.2007,1.6006,virtualtown,1,1,1,0.5017,NR,0,0.2113
103,1,103,250.8015,1.5988,virtualtown,0,0,1,0.4515,NR,0,0.6062
104,1,104,252.4005,1.6003,virtualtown,1,1,1,0.4647,NR,0,999.0000
105,1,105,254.0010,1.6003,virtualtown,0,0,1,0.4559,NR,0,999.0000
106,1,106,255.6015,1.5995,virtualtown,0,0,1,0.4330,NR,0,999.0000
107,1,107,257.2011,1.5992,virtualtown,0,0,1,0.4406,NR,0,0.2122
108,1,108,258.8006,1.5996,virtualtown,0,0,1,0.5410,NR,0,0.6054
109,1,109,260.4004,1.6007,virtualtown,1,1,1,0.3789,NR,0,999.0000
110,1,110,262.0052,9.9958,rest,0,NR,1,7.8799,NR,1,0.0000
111,1,111,272.0012,1.5990,animal,0,0,1,0.4638,NR,0,999.0000
112,1,112,273.6004,1.5998,animal,0,0,1,0.4369,NR,0,999.0000
113,1,113,275.2004,1.6002,animal,0,0,1,0.3270,NR,0,0.2044
114,1,114,276.8008,1.5998,animal,1,1,1,0.3504,NR,0,0.5984
115,1,115,278.4008,1.6005,animal,0,0,1,0.3260,NR,0,999.0000
116,1,116,280.0015,1.5991,animal,0,0,1,0.4164,NR,0,999.0000
117,1,117,281.6008,1.5998,animal,0,0,1,0.4849,NR,0,999.0000
118,1,118,283.2008,1.5995,animal,1,1,1,0.5093,NR,0,0.2054
119,1,119,284.8005,1.6004,animal,0,0,1,0.3394,NR,0,0.6121
120,1,120,286.4011,1.6001,animal,1,1,1,0.3606,NR,0,999.0000
121,1,121,288.0134,9.9876,rest,0,NR,1,7.8613,NR,1,0.0000
122,1,122,298.0012,1.6000,tool,0,0,1,0.4421,NR,0,999.0000
123,1,123,299.6014,1.5998,tool,0,NR,0,0.4063,NR,0,999.0000
124,1,124,301.2013,1.5995,tool,1,1,1,0.3771,NR,0,0.2116
125,1,125,302.8011,1.5992,tool,0,0,1,0.2803,NR,0,0.6073
126,1,126,304.4005,1.6003,tool,0,0,1,0.3303,NR,0,999.0000
127,1,127,306.0010,1.5997,tool,0,0,1,0.3544,NR,0,999.0000
128,1,128,307.6008,1.5995,tool,1,1,1,0.2939,NR,0,999.0000
129,1,129,309.2005,1.6006,tool,0,0,1,0.2365,NR,0,0.2120
130,1,130,310.8013,1.6001,tool,0,NR,0,999.0000,NR,0,0.6076
131,1,131,312.4016,1.5992,tool,1,1,1,0.2660,NR,0,999.0000
132,1,132,314.0060,9.9945,rest,0,0,1,7.8587,NR,1,0.0000
133,1,133,324.0007,1.5999,fruitveg,0,0,1,0.5010,NR,0,999.0000
134,1,134,325.6009,1.6003,fruitveg,0,0,1,0.3727,NR,0,999.0000
135,1,135,327.2013,1.5988,fruitveg,1,1,1,0.2913,NR,0,0.2061
136,1,136,328.8003,1.6005,fruitveg,0,0,1,0.4093,NR,0,0.6001
137,1,137,330.4011,1.5993,fruitveg,1,1,1,0.3703,NR,0,999.0000
138,1,138,332.0006,1.5997,fruitveg,0,0,1,0.3820,NR,0,999.0000
139,1,139,333.6004,1.6000,fruitveg,1,0,0,0.3374,1,1,0.0693
140,1,140,335.2007,1.5999,fruitveg,0,0,1,0.2802,NR,0,0.2069
141,1,141,336.8008,1.6006,fruitveg,0,0,1,0.2961,NR,0,0.6132
142,1,142,338.4016,1.5989,fruitveg,0,0,1,0.4139,NR,0,999.0000
143,1,143,340.0131,9.9878,rest,0,NR,1,7.8412,NR,1,0.0000
144,1,144,350.0012,1.5994,animal,0,0,1,0.4742,NR,0,999.0000
145,1,145,351.6008,1.6002,animal,0,0,1,0.5122,NR,0,999.0000
146,1,146,353.2012,1.5999,animal,0,0,1,0.4032,NR,0,0.2134
147,1,147,354.8013,1.5992,animal,1,1,1,0.3772,NR,0,0.6101
148,1,148,356.4007,1.6004,animal,0,0,1,0.4349,NR,0,999.0000
149,1,149,358.0014,1.5990,animal,1,1,1,0.3441,NR,0,999.0000
150,1,150,359.6006,1.5999,animal,0,0,1,0.3447,NR,0,999.0000
151,1,151,361.2007,1.6004,animal,0,1,0,0.3627,NR,0,0.2133
152,1,152,362.8013,1.6000,animal,0,0,1,0.5415,NR,0,0.6106
153,1,153,364.4015,1.5995,animal,1,1,1,0.2794,NR,0,999.0000
154,1,154,366.0073,9.9933,rest,0,NR,1,7.8384,NR,1,0.0000
155,1,155,376.0008,1.5994,tool,0,0,1,0.4172,NR,0,999.0000
156,1,156,377.6004,1.6004,tool,0,0,1,0.4138,NR,0,999.0000
157,1,157,379.2011,1.5998,tool,0,0,1,0.4296,NR,0,0.2096
158,1,158,380.8011,1.5999,tool,0,0,1,0.4067,NR,0,0.6023
159,1,159,382.4012,1.5995,tool,1,1,1,0.2581,NR,0,999.0000
160,1,160,384.0009,1.5992,tool,0,0,1,0.2621,NR,0,999.0000
161,1,161,385.6003,1.6004,tool,1,1,1,0.5306,NR,0,999.0000
162,1,162,387.2009,1.5996,tool,0,0,1,0.3800,NR,0,0.2097
163,1,163,388.8007,1.5998,tool,0,0,1,0.4302,NR,0,0.6035
164,1,164,390.4007,1.6001,tool,1,1,1,0.2625,NR,0,999.0000
165,1,165,392.0129,9.9877,rest,0,NR,1,7.8230,NR,1,0.0000
166,1,166,402.0008,1.6002,virtualtown,0,NR,0,0.0147,0,1,0.0082
167,1,167,403.6012,1.6001,virtualtown,0,0,1,0.4601,NR,0,999.0000
168,1,168,405.2015,1.5986,virtualtown,0,0,1,0.5070,NR,0,0.2142
169,1,169,406.8003,1.6006,virtualtown,1,1,1,0.5414,NR,0,0.6127
170,1,170,408.4011,1.5996,virtualtown,0,0,1,0.2572,NR,0,999.0000
171,1,171,410.0009,1.6003,virtualtown,0,0,1,0.3868,NR,0,999.0000
172,1,172,411.6014,1.5987,virtualtown,1,1,1,0.4497,NR,0,999.0000
173,1,173,413.2002,1.6008,virtualtown,0,0,1,0.2891,NR,0,0.2144
174,1,174,414.8013,1.5990,virtualtown,0,0,1,0.5883,NR,0,0.6118
175,1,175,416.4005,1.5999,virtualtown,1,0,0,0.4379,NR,0,999.0000
176,1,176,418.0085,9.9921,rest,0,NR,1,7.8178,NR,1,0.0000
177,1,177,428.0009,1.5995,virtualtown,0,0,1,0.4759,NR,0,999.0000
178,1,178,429.6006,1.6006,virtualtown,0,0,1,0.4906,NR,0,999.0000
179,1,179,431.2014,1.5995,virtualtown,1,1,1,0.4341,NR,0,0.2117
180,1,180,432.8011,1.5997,virtualtown,0,0,1,0.4551,NR,0,0.6058
181,1,181,434.4010,1.5993,virtualtown,0,0,1,0.4583,NR,0,999.0000
182,1,182,436.0005,1.6005,virtualtown,1,NR,0,0.0111,1,1,0.0129
183,1,183,437.6012,1.5997,virtualtown,0,0,1,0.4583,NR,0,999.0000
184,1,184,439.2011,1.5996,virtualtown,1,1,1,0.5111,NR,0,0.2111
185,1,185,440.8009,1.6003,virtualtown,0,0,1,0.5100,NR,0,0.6047
186,1,186,442.4015,1.5992,virtualtown,0,0,1,0.5409,NR,0,999.0000
187,1,187,444.0126,9.9883,rest,0,NR,1,7.8051,NR,1,0.0000
188,1,188,454.0012,1.5989,face,0,NR,0,0.0148,0,1,0.0956
189,1,189,455.6003,1.6000,face,0,0,1,0.4739,NR,0,999.0000
190,1,190,457.2005,1.6003,face,1,1,1,0.3656,NR,0,0.2152
191,1,191,458.8010,1.6003,face,0,0,1,0.3691,NR,0,0.6150
192,1,192,460.4015,1.5986,face,0,0,1,0.3960,NR,0,999.0000
193,1,193,462.0003,1.6003,face,0,0,1,0.4221,NR,0,999.0000
194,1,194,463.6008,1.6002,face,1,1,1,0.3194,NR,0,999.0000
195,1,195,465.2012,1.6002,face,0,0,1,0.3095,NR,0,0.2154
196,1,196,466.8016,1.5997,face,0,0,1,0.4127,NR,0,0.6142
197,1,197,468.4016,1.5992,face,1,0,0,0.4455,1,1,0.1934
198,1,198,470.0097,9.9913,rest,0,NR,1,7.7986,NR,1,0.0000
199,1,199,480.0012,1.6001,fruitveg,0,NR,0,0.0127,0,1,0.0162
200,1,200,481.6016,1.5987,fruitveg,0,0,1,0.4473,NR,0,999.0000
201,1,201,483.2005,1.5999,fruitveg,0,0,1,0.3735,NR,0,0.2133
202,1,202,484.8006,1.6003,fruitveg,0,0,1,0.4912,NR,0,0.6077
203,1,203,486.4012,1.5991,fruitveg,0,0,1,0.4922,NR,0,999.0000
204,1,204,488.0004,1.6004,fruitveg,1,1,1,0.2800,NR,0,999.0000
205,1,205,489.6010,1.5993,fruitveg,0,0,1,0.2761,NR,0,999.0000
206,1,206,491.2005,1.6007,fruitveg,1,1,1,0.3311,NR,0,0.2138
207,1,207,492.8014,1.5999,fruitveg,0,0,1,0.3066,NR,0,0.6068
208,1,208,494.4015,1.5990,fruitveg,1,1,1,0.4280,NR,0,999.0000
209,1,209,496.0124,9.9889,rest,0,NR,1,7.7822,NR,1,0.0000
210,1,210,506.0014,1.5993,face,0,NR,0,0.0168,0,1,0.1505
211,1,211,507.6010,1.6002,face,0,0,1,0.5117,NR,0,999.0000
212,1,212,509.2014,1.5996,face,0,0,1,0.5167,NR,0,0.2158
213,1,213,510.8013,1.5992,face,1,1,1,0.3897,NR,0,0.6163
214,1,214,512.4008,1.5994,face,0,0,1,0.3001,NR,0,999.0000
215,1,215,514.0003,1.5998,face,0,0,1,0.5732,NR,0,999.0000
216,1,216,515.6003,1.6011,face,1,1,1,0.3794,NR,0,999.0000
217,1,217,517.2015,1.5997,face,0,0,1,0.5427,NR,0,0.2070
218,1,218,518.8014,1.5996,face,0,NR,0,999.0000,NR,0,0.6154
219,1,219,520.4012,1.5995,face,1,0,0,0.3571,NR,0,999.0000
220,1,220,522.0110,9.9896,rest,0,NR,1,7.7745,NR,1,0.0000
221,2,1,12.0027,1.5980,tool,0,0,1,0.5373,NR,0,999.0000
222,2,2,13.6009,1.5997,tool,0,0,1,0.4485,NR,0,999.0000
223,2,3,15.2009,1.6005,tool,0,0,1,0.3569,NR,0,0.1909
224,2,4,16.8016,1.5991,tool,1,1,1,0.3473,NR,0,0.5893
225,2,5,18.4008,1.6003,tool,0,0,1,0.3811,NR,0,999.0000
226,2,6,20.0013,1.5990,tool,0,0,1,0.4274,NR,0,999.0000
227,2,7,21.6005,1.5996,tool,0,0,1,0.3913,NR,0,999.0000
228,2,8,23.2004,1.6007,tool,1,1,1,0.3783,NR,0,0.1911
229,2,9,24.8012,1.6001,tool,0,0,1,0.4595,NR,0,0.5912
230,2,10,26.4015,1.5989,tool,1,1,1,0.3922,NR,0,999.0000
231,2,11,28.0180,9.9832,rest,0,NR,1,7.7281,NR,1,0.0000
232,2,12,38.0014,1.5994,face,0,0,1,0.5493,NR,0,999.0000
233,2,13,39.6011,1.5997,face,0,0,1,0.4366,NR,0,999.0000
234,2,14,41.2010,1.6003,face,0,0,1,0.4947,NR,0,0.1916
235,2,15,42.8015,1.5994,face,1,0,0,0.4050,NR,0,0.5908
236,2,16,44.4010,1.6003,face,0,0,1,0.5286,NR,0,999.0000
237,2,17,46.0015,1.5999,face,1,1,1,0.4849,NR,0,999.0000
238,2,18,47.6015,1.5995,face,0,0,1,0.5127,NR,0,999.0000
239,2,19,49.2013,1.5994,face,1,1,1,0.3203,NR,0,0.1909
240,2,20,50.8009,1.6004,face,0,0,1,0.5470,NR,0,0.5916
241,2,21,52.4015,1.5991,face,0,0,1,0.3444,NR,0,999.0000
242,2,22,54.0187,9.9819,rest,0,NR,1,7.7327,NR,1,0.0000
243,2,23,64.0008,1.6002,tool,0,NR,0,999.0000,0,1,0.0232
244,2,24,65.6012,1.5990,tool,0,0,1,0.4684,NR,0,999.0000
245,2,25,67.2004,1.6009,tool,1,0,0,0.4369,NR,0,0.1976
246,2,26,68.8015,1.5986,tool,0,0,1,0.3960,NR,0,0.5915
247,2,27,70.4003,1.5999,tool,0,0,1,0.4853,NR,0,999.0000
248,2,28,72.0003,1.5998,tool,1,1,1,0.3772,NR,0,999.0000
249,2,29,73.6003,1.5998,tool,0,NR,0,0.4092,NR,0,999.0000
250,2,30,75.2003,1.6005,tool,1,0,0,0.3568,NR,0,0.1987
251,2,31,76.8010,1.5992,tool,0,0,1,0.2659,NR,0,0.6076
252,2,32,78.4005,1.5996,tool,0,0,1,0.4960,NR,0,999.0000
253,2,33,80.0135,9.9871,rest,0,NR,1,7.7306,NR,1,0.0000
254,2,34,90.0008,1.6003,face,0,0,1,0.5539,NR,0,999.0000
255,2,35,91.6012,1.5993,face,0,NR,0,0.3926,0,1,0.0388
256,2,36,93.2008,1.6003,face,1,NR,0,999.0000,1,1,0.2079
257,2,37,94.8013,1.5992,face,0,0,1,0.5040,NR,0,0.6003
258,2,38,96.4007,1.6002,face,0,0,1,0.4411,NR,0,999.0000
259,2,39,98.0011,1.5998,face,0,0,1,0.4281,NR,0,999.0000
260,2,40,99.6011,1.6001,face,1,NR,0,0.3998,1,1,0.0427
261,2,41,101.2014,1.5996,face,0,0,1,0.5243,NR,0,999.0000
262,2,42,102.8013,1.5994,face,1,NR,0,999.0000,NR,0,0.6012
263,2,43,104.4009,1.6001,face,0,NR,0,999.0000,NR,0,999.0000
264,2,44,106.0049,9.9960,rest,0,NR,1,7.7279,NR,1,0.0000
265,2,45,116.0012,1.5992,animal,0,0,1,0.3539,NR,0,999.0000
266,2,46,117.6006,1.6007,animal,0,0,1,0.4453,NR,0,999.0000
267,2,47,119.2016,1.5994,animal,0,0,1,0.5634,NR,0,0.2005
268,2,48,120.8012,1.5992,animal,0,0,1,0.4206,NR,0,0.6094
269,2,49,122.4006,1.6003,animal,1,1,1,0.2531,NR,0,999.0000
270,2,50,124.0010,1.5996,animal,0,0,1,0.4116,NR,0,999.0000
271,2,51,125.6009,1.5998,animal,1,1,1,0.4568,NR,0,999.0000
272,2,52,127.2008,1.5999,animal,0,0,1,0.3669,NR,0,0.2002
273,2,53,128.8010,1.6002,animal,1,NR,0,999.0000,1,1,0.0545
274,2,54,130.4014,1.5994,animal,0,0,1,0.5166,NR,0,999.0000
275,2,55,132.0132,9.9869,rest,0,NR,1,7.7093,NR,1,0.0000
276,2,56,142.0004,1.6001,face,0,0,1,0.5962,NR,0,999.0000
277,2,57,143.6006,1.6007,face,0,NR,0,0.4019,NR,0,999.0000
278,2,58,145.2015,1.5997,face,1,1,1,0.3643,NR,0,0.2101
279,2,59,146.8014,1.5988,face,0,0,1,0.5119,NR,0,0.6037
280,2,60,148.4004,1.6005,face,0,0,1,0.3865,NR,0,999.0000
281,2,61,150.0011,1.5994,face,1,1,1,0.4920,NR,0,999.0000
282,2,62,151.6006,1.6003,face,0,0,1,0.3997,NR,0,999.0000
283,2,63,153.2011,1.5994,face,1,1,1,0.3479,NR,0,0.2095
284,2,64,154.8007,1.6004,face,0,0,1,0.5090,NR,0,0.6025
285,2,65,156.4013,1.5998,face,0,NR,0,999.0000,0,1,0.1167
286,2,66,158.0049,9.9963,rest,0,NR,1,7.7102,NR,1,0.0000
287,2,67,168.0014,1.5998,fruitveg,0,NR,0,999.0000,NR,0,999.0000
288,2,68,169.6014,1.5988,fruitveg,0,0,1,0.5084,NR,0,999.0000
289,2,69,171.2004,1.6003,fruitveg,1,NR,0,999.0000,NR,0,0.2017
290,2,70,172.8009,1.5992,fruitveg,0,0,1,0.4420,NR,0,0.5961
291,2,71,174.4003,1.6005,fruitveg,0,0,1,0.5054,NR,0,999.0000
292,2,72,176.0010,1.6002,fruitveg,0,0,1,0.5224,NR,0,999.0000
293,2,73,177.6014,1.5993,fruitveg,0,0,1,0.4885,NR,0,999.0000
294,2,74,179.2009,1.5998,fruitveg,1,0,0,0.3964,1,1,0.0592
295,2,75,180.8010,1.6007,fruitveg,0,0,1,0.4258,NR,0,0.5963
296,2,76,182.4019,1.5994,fruitveg,1,1,1,0.3130,NR,0,999.0000
297,2,77,184.0131,9.9870,rest,0,NR,1,7.6900,NR,1,0.0000
298,2,78,194.0003,1.6007,face,0,0,1,0.5528,NR,0,999.0000
299,2,79,195.6011,1.5997,face,0,0,1,0.3007,NR,0,999.0000
300,2,80,197.2010,1.5998,face,1,1,1,0.3574,NR,0,0.2110
301,2,81,198.8010,1.6002,face,0,0,1,0.2933,NR,0,0.6056
302,2,82,200.4015,1.5988,face,0,0,1,0.5510,NR,0,999.0000
303,2,83,202.0005,1.5998,face,1,NR,0,0.0100,1,1,0.1543
304,2,84,203.6005,1.6006,face,0,NR,0,0.4050,NR,0,999.0000
305,2,85,205.2012,1.5999,face,0,NR,0,999.0000,0,1,0.0758
306,2,86,206.8014,1.5989,face,0,NR,0,999.0000,0,1,0.0660
307,2,87,208.4005,1.6002,face,1,1,1,0.4213,NR,0,999.0000
308,2,88,210.0056,9.9954,rest,0,NR,1,7.6893,NR,1,0.0000
309,2,89,220.0012,1.5996,virtualtown,0,NR,0,0.0044,0,1,0.0771
310,2,90,221.6010,1.5991,virtualtown,0,0,1,0.4782,NR,0,999.0000
311,2,91,223.2004,1.6000,virtualtown,0,0,1,0.4878,NR,0,0.2041
312,2,92,224.8006,1.6006,virtualtown,1,1,1,0.4399,NR,0,0.5976
313,2,93,226.4014,1.5993,virtualtown,0,0,1,0.5411,NR,0,999.0000
314,2,94,228.0009,1.5993,virtualtown,1,1,1,0.4421,NR,0,999.0000
315,2,95,229.6003,1.6009,virtualtown,0,0,1,0.4964,NR,0,999.0000
316,2,96,231.2014,1.5987,virtualtown,1,1,1,0.2340,NR,0,0.2046
317,2,97,232.8004,1.5997,virtualtown,0,0,1,0.2750,NR,0,0.5982
318,2,98,234.4003,1.6007,virtualtown,0,NR,0,999.0000,NR,0,999.0000
319,2,99,236.0127,9.9880,rest,0,NR,1,7.6733,NR,1,0.0000
320,2,100,246.0009,1.5996,tool,0,NR,0,0.0127,NR,0,999.0000
321,2,101,247.6008,1.5993,tool,0,NR,0,0.4064,NR,0,999.0000
322,2,102,249.2003,1.5998,tool,1,NR,0,999.0000,0,0,0.0396
323,2,103,250.8004,1.6003,tool,0,0,1,0.3044,NR,0,0.6077
324,2,104,252.4009,1.5996,tool,1,1,1,0.3355,NR,0,999.0000
325,2,105,254.0007,1.6006,tool,0,0,1,0.5408,NR,0,999.0000
326,2,106,255.6015,1.5993,tool,1,0,0,0.4856,NR,0,999.0000
327,2,107,257.2011,1.5996,tool,0,0,1,0.4145,NR,0,0.2114
328,2,108,258.8009,1.5993,tool,0,NR,0,999.0000,0,1,0.1136
329,2,109,260.4005,1.6000,tool,0,0,1,0.5054,NR,0,999.0000
330,2,110,262.0068,9.9934,rest,0,0,1,7.6687,NR,1,0.0000
331,2,111,272.0004,1.6001,fruitveg,0,NR,0,0.0064,0,1,0.3103
332,2,112,273.6007,1.6007,fruitveg,0,NR,0,0.3999,0,1,0.0563
333,2,113,275.2016,1.5988,fruitveg,0,0,1,0.5186,NR,0,0.2070
334,2,114,276.8006,1.6005,fruitveg,0,0,1,0.4098,NR,0,0.5995
335,2,115,278.4013,1.5998,fruitveg,1,1,1,0.2989,NR,0,999.0000
336,2,116,280.0013,1.5996,fruitveg,0,0,1,0.3649,NR,0,999.0000
337,2,117,281.6010,1.6000,fruitveg,0,0,1,0.3467,NR,0,999.0000
338,2,118,283.2013,1.5996,fruitveg,1,1,1,0.3667,NR,0,0.2076
339,2,119,284.8011,1.5993,fruitveg,0,0,1,0.4048,NR,0,0.5995
340,2,120,286.4006,1.5995,fruitveg,1,NR,0,999.0000,1,1,0.0882
341,2,121,288.0125,9.9879,rest,0,0,1,7.6519,NR,1,0.0000
342,2,122,298.0007,1.5997,animal,0,NR,0,0.0126,0,1,0.0437
343,2,123,299.6006,1.6004,animal,0,NR,0,0.4090,0,1,0.1451
344,2,124,301.2013,1.5991,animal,1,0,0,0.3495,NR,0,0.2122
345,2,125,302.8006,1.6006,animal,0,0,1,0.2890,NR,0,0.6098
346,2,126,304.4014,1.5997,animal,1,1,1,0.3941,NR,0,999.0000
347,2,127,306.0013,1.5997,animal,0,0,1,0.5574,NR,0,999.0000
348,2,128,307.6012,1.5992,animal,0,0,1,0.3577,NR,0,999.0000
349,2,129,309.2007,1.6004,animal,0,NR,0,999.0000,NR,0,0.2114
350,2,130,310.8013,1.5989,animal,0,NR,0,999.0000,0,1,0.6100
351,2,131,312.4004,1.5998,animal,1,NR,0,999.0000,NR,0,999.0000
352,2,132,314.0081,9.9927,rest,0,NR,1,7.6484,NR,1,0.0000
353,2,133,324.0010,1.5997,virtualtown,0,0,1,0.4999,NR,0,999.0000
354,2,134,325.6009,1.5998,virtualtown,0,0,1,0.3362,NR,0,999.0000
355,2,135,327.2009,1.6002,virtualtown,1,NR,0,999.0000,1,1,0.0185
356,2,136,328.8013,1.5998,virtualtown,0,0,1,0.3272,NR,0,0.6026
357,2,137,330.4013,1.5989,virtualtown,0,0,1,0.4212,NR,0,999.0000
358,2,138,332.0004,1.6005,virtualtown,0,0,1,0.5342,NR,0,999.0000
359,2,139,333.6011,1.5994,virtualtown,1,NR,0,0.4021,1,1,0.0258
360,2,140,335.2007,1.6005,virtualtown,0,NR,0,999.0000,0,1,0.2094
361,2,141,336.8014,1.5992,virtualtown,0,1,0,0.5531,NR,0,0.6023
362,2,142,338.4009,1.5992,virtualtown,1,1,1,0.3864,NR,0,999.0000
363,2,143,340.0125,9.9879,rest,0,NR,1,7.6340,NR,1,0.0000
364,2,144,350.0006,1.6005,virtualtown,0,NR,0,0.0126,NR,0,999.0000
365,2,145,351.6013,1.5994,virtualtown,0,0,1,0.5368,NR,0,999.0000
366,2,146,353.2009,1.6000,virtualtown,1,1,1,0.3628,NR,0,0.2125
367,2,147,354.8011,1.5993,virtualtown,0,0,1,0.4578,NR,0,0.6124
368,2,148,356.4007,1.6008,virtualtown,1,1,1,0.5795,NR,0,999.0000
369,2,149,358.0016,1.5987,virtualtown,0,NR,0,0.0130,0,1,0.2463
370,2,150,359.6006,1.6004,virtualtown,0,NR,0,0.4106,NR,0,999.0000
371,2,151,361.2012,1.5996,virtualtown,1,0,0,0.4450,NR,0,0.2126
372,2,152,362.8010,1.5997,virtualtown,0,0,1,0.5551,NR,0,0.6124
373,2,153,364.4009,1.5992,virtualtown,0,NR,0,999.0000,0,1,0.2329
374,2,154,366.0094,9.9919,rest,0,0,1,7.3295,NR,1,0.0000
375,2,155,376.0015,1.5993,animal,0,0,1,0.5812,NR,0,999.0000
376,2,156,377.6010,1.5996,animal,0,0,1,0.2995,NR,0,999.0000
377,2,157,379.2008,1.6005,animal,1,0,0,0.3216,NR,0,0.2111
378,2,158,380.8015,1.5991,animal,0,0,1,0.3552,NR,0,0.6050
379,2,159,382.4009,1.6000,animal,0,0,1,0.4732,NR,0,999.0000
380,2,160,384.0011,1.6002,animal,0,0,1,0.4348,NR,0,999.0000
381,2,161,385.6016,1.5994,animal,0,0,1,0.4810,NR,0,999.0000
382,2,162,387.2011,1.5991,animal,1,1,1,0.2575,NR,0,0.2113
383,2,163,388.8004,1.6000,animal,0,0,1,0.2936,NR,0,0.6044
384,2,164,390.4006,1.5995,animal,1,0,0,0.4259,NR,0,999.0000
385,2,165,392.0121,9.9883,rest,0,NR,1,7.6165,NR,1,0.0000
386,2,166,402.0007,1.5994,animal,0,NR,0,0.0148,0,1,0.2651
387,2,167,403.6003,1.6001,animal,0,0,1,0.4485,NR,0,999.0000
388,2,168,405.2006,1.5999,animal,1,1,1,0.3683,NR,0,0.2138
389,2,169,406.8007,1.6003,animal,0,NR,0,999.0000,NR,0,0.6134
390,2,170,408.4012,1.5999,animal,0,0,1,0.3085,NR,0,999.0000
391,2,171,410.0012,1.5998,animal,1,1,1,0.5457,NR,0,999.0000
392,2,172,411.6012,1.5993,animal,0,0,1,0.2822,NR,0,999.0000
393,2,173,413.2007,1.5994,animal,0,NR,0,999.0000,NR,0,0.2038
394,2,174,414.8003,1.6002,animal,1,0,0,0.3452,NR,0,0.6136
395,2,175,416.4007,1.5997,animal,0,1,0,0.3004,NR,0,999.0000
396,2,176,418.0106,9.9896,rest,0,NR,1,7.6068,NR,1,0.0000
397,2,177,428.0005,1.6005,fruitveg,0,0,1,0.4294,NR,0,999.0000
398,2,178,429.6011,1.5995,fruitveg,0,0,1,0.5065,NR,0,999.0000
399,2,179,431.2008,1.5996,fruitveg,0,0,1,0.4066,NR,0,0.2137
400,2,180,432.8006,1.6007,fruitveg,1,1,1,0.4377,NR,0,0.6069
401,2,181,434.4015,1.5986,fruitveg,0,0,1,0.3740,NR,0,999.0000
402,2,182,436.0002,1.6000,fruitveg,1,0,0,0.4109,1,1,0.0984
403,2,183,437.6004,1.5998,fruitveg,0,0,1,0.3955,NR,0,999.0000
404,2,184,439.2004,1.5998,fruitveg,0,0,1,0.4479,NR,0,0.2142
405,2,185,440.8004,1.6001,fruitveg,0,0,1,0.4467,NR,0,0.6066
406,2,186,442.4008,1.6005,fruitveg,1,1,1,0.2921,NR,0,999.0000
407,2,187,444.0120,9.9885,rest,0,NR,1,7.5954,NR,1,0.0000
408,2,188,454.0007,1.5997,fruitveg,0,NR,0,0.0147,NR,0,999.0000
409,2,189,455.6006,1.6002,fruitveg,0,0,1,0.5160,NR,0,999.0000
410,2,190,457.2010,1.5993,fruitveg,0,0,1,0.3742,NR,0,0.2138
411,2,191,458.8005,1.6005,fruitveg,0,NR,0,999.0000,NR,0,0.6141
412,2,192,460.4013,1.5993,fruitveg,1,0,0,0.4316,NR,0,999.0000
413,2,193,462.0008,1.5997,fruitveg,0,0,1,0.5498,NR,0,999.0000
414,2,194,463.6007,1.5994,fruitveg,0,0,1,0.4555,NR,0,999.0000
415,2,195,465.2003,1.6008,fruitveg,1,1,1,0.4127,NR,0,0.2143
416,2,196,466.8013,1.5988,fruitveg,0,0,1,0.4992,NR,0,0.6138
417,2,197,468.4004,1.5999,fruitveg,1,1,1,0.3294,NR,0,999.0000
418,2,198,470.0119,9.9884,rest,0,NR,1,7.5870,NR,1,0.0000
419,2,199,480.0005,1.6000,virtualtown,0,NR,0,0.0148,0,1,0.1983
420,2,200,481.6007,1.5997,virtualtown,0,0,1,0.4392,NR,0,999.0000
421,2,201,483.2006,1.5996,virtualtown,1,1,1,0.5194,NR,0,0.2140
422,2,202,484.8004,1.6001,virtualtown,0,NR,0,999.0000,0,1,0.2643
423,2,203,486.4007,1.5996,virtualtown,0,NR,0,999.0000,0,1,0.0265
424,2,204,488.0005,1.5997,virtualtown,1,0,0,0.4284,NR,0,999.0000
425,2,205,489.6004,1.5998,virtualtown,0,1,0,0.4926,NR,0,999.0000
426,2,206,491.2005,1.6004,virtualtown,1,NR,0,999.0000,NR,0,0.2135
427,2,207,492.8011,1.6004,virtualtown,0,0,1,0.2680,NR,0,0.6093
428,2,208,494.4017,1.5991,virtualtown,0,0,1,0.5293,NR,0,999.0000
429,2,209,496.0125,9.9880,rest,0,NR,1,7.5770,NR,1,0.0000
430,2,210,506.0007,1.6000,tool,0,NR,0,0.0147,0,1,0.0782
431,2,211,507.6009,1.6000,tool,0,NR,0,0.4146,NR,0,999.0000
432,2,212,509.2011,1.6003,tool,1,0,0,0.4130,NR,0,0.2082
433,2,213,510.8017,1.5997,tool,0,0,1,0.5060,NR,0,0.6149
434,2,214,512.4016,1.5992,tool,1,0,0,0.4206,NR,0,999.0000
435,2,215,514.0010,1.6003,tool,0,0,1,0.3439,NR,0,999.0000
436,2,216,515.6014,1.6000,tool,0,0,1,0.5441,NR,0,999.0000
437,2,217,517.2016,1.5994,tool,0,0,1,0.5807,NR,0,0.2142
438,2,218,518.8012,1.6002,tool,0,0,1,0.5703,NR,0,0.6140
439,2,219,520.4016,1.5994,tool,1,1,1,0.3095,NR,0,999.0000
440,2,220,522.0132,9.9889,rest,0,NR,1,7.5644,NR,1,0.0000
