index,run,trial,onset,duration,town,pic,itemNum,resp,respRT
1,1,1,1.0018,41.4630,Town3,env3.jpg,1,MARK ZUCKERBURG,21.8514
2,1,1,1.0018,41.4630,Town3,env3.jpg,2,?,18.1517
3,1,1,1.0018,41.4630,Town3,env3.jpg,3,?,1.4553
4,1,2,42.5014,21.4446,Town2,env2.jpg,1,?,19.5795
5,1,2,42.5014,21.4446,Town2,env2.jpg,2,?,0.8479
6,1,2,42.5014,21.4446,Town2,env2.jpg,3,?,1.0153
7,1,3,63.9814,23.5356,Town6,env6.jpg,1,BEYONCE,12.5408
8,1,3,63.9814,23.5356,Town6,env6.jpg,2,DUCK,9.6893
9,1,3,63.9814,23.5356,Town6,env6.jpg,3,GRAPES,1.3036
10,1,4,87.5518,24.1612,Town1,env1.jpg,1,GOAT,8.8008
11,1,4,87.5518,24.1612,Town1,env1.jpg,2,?,7.6156
12,1,4,87.5518,24.1612,Town1,env1.jpg,3,SCREWDRIVER,7.7429
13,1,5,111.7484,22.4399,Town9,env9.jpg,1,BEYONCE,18.7993
14,1,5,111.7484,22.4399,Town9,env9.jpg,2,?,2.7753
15,1,5,111.7484,22.4399,Town9,env9.jpg,3,?,0.8634
16,1,6,134.2238,21.6888,Town12,env12.jpg,1,EMMA WATSON,7.1681
17,1,6,134.2238,21.6888,Town12,env12.jpg,2,BEAR,1.2314
18,1,6,134.2238,21.6888,Town12,env12.jpg,3,GREEN SCREWDRIVERS,13.2875
19,1,7,155.9481,16.1386,Town11,env11.jpg,1,JOHNNY DEPP,8.2754
20,1,7,155.9481,16.1386,Town11,env11.jpg,2,ELEPHANT,5.9323
21,1,7,155.9481,16.1386,Town11,env11.jpg,3,CARROT,1.9290
22,1,8,172.1217,9.1940,Town5,env5.jpg,1,BENEDICT CUMBERBATCH,5.0416
23,1,8,172.1217,9.1940,Town5,env5.jpg,2,FLAMINGO,1.4149
24,1,8,172.1217,9.1940,Town5,env5.jpg,3,TAPE MEASURE,2.7358
25,1,9,181.3511,12.2862,Town10,env10.jpg,1,?,10.9498
26,1,9,181.3511,12.2862,Town10,env10.jpg,2,?,0.6726
27,1,9,181.3511,12.2862,Town10,env10.jpg,3,?,0.6620
28,1,10,193.6727,18.0758,Town8,env8.jpg,1,PUPPY,6.2117
29,1,10,193.6727,18.0758,Town8,env8.jpg,2,BEYONCE,11.1431
30,1,10,193.6727,18.0758,Town8,env8.jpg,3,?,0.7192
31,1,11,211.7833,12.3368,Town7,env7.jpg,1,?,11.1124
32,1,11,211.7833,12.3368,Town7,env7.jpg,2,?,0.6076
33,1,11,211.7833,12.3368,Town7,env7.jpg,3,?,0.6149
34,1,12,224.1556,25.4477,Town4,env4.jpg,1,WRENCH,11.9697
35,1,12,224.1556,25.4477,Town4,env4.jpg,2,ALLIGATOR,12.5802
36,1,12,224.1556,25.4477,Town4,env4.jpg,3,?,0.8959
37,2,1,1.0008,17.7559,Town12,env12.jpg,1,Zooey Daschenel,13.4488
38,2,1,1.0008,17.7559,Town12,env12.jpg,2,Apple,3.0242
39,2,1,1.0008,17.7559,Town12,env12.jpg,3,Panda,1.2788
40,2,2,18.7864,7.3940,Town11,env11.jpg,1,Johnny Depp,4.2328
41,2,2,18.7864,7.3940,Town11,env11.jpg,2,Carrot,1.7284
42,2,2,18.7864,7.3940,Town11,env11.jpg,3,Elephant,1.4311
43,2,3,26.2094,21.0547,Town3,env3.jpg,1,Taylor Swift,16.1180
44,2,3,26.2094,21.0547,Town3,env3.jpg,2,Cow,2.5199
45,2,3,26.2094,21.0547,Town3,env3.jpg,3,Tape Measure,2.4150
46,2,4,47.2929,13.0024,Town2,env2.jpg,1,Mark Zuckerberg,7.0913
47,2,4,47.2929,13.0024,Town2,env2.jpg,2,Cucumber,2.9991
48,2,4,47.2929,13.0024,Town2,env2.jpg,3,Kitten,2.9102
49,2,5,60.3243,10.9810,Town10,env10.jpg,1,?,9.7175
50,2,5,60.3243,10.9810,Town10,env10.jpg,2,?,0.7187
51,2,5,60.3243,10.9810,Town10,env10.jpg,3,?,0.5430
52,2,6,71.3339,15.8979,Town9,env9.jpg,1,Paul McCartney,6.8678
53,2,6,71.3339,15.8979,Town9,env9.jpg,2,Wrench,8.3870
54,2,6,71.3339,15.8979,Town9,env9.jpg,3,?,0.6412
55,2,7,87.2602,5.7392,Town4,env4.jpg,1,?,4.5534
56,2,7,87.2602,5.7392,Town4,env4.jpg,2,?,0.6160
57,2,7,87.2602,5.7392,Town4,env4.jpg,3,?,0.5679
58,2,8,93.0283,6.0509,Town8,env8.jpg,1,Puppy,2.6496
59,2,8,93.0283,6.0509,Town8,env8.jpg,2,Beyonce,1.6231
60,2,8,93.0283,6.0509,Town8,env8.jpg,3,Lemons,1.7765
61,2,9,99.1077,18.6233,Town1,env1.jpg,1,Clooney,8.0218
62,2,9,99.1077,18.6233,Town1,env1.jpg,2,Zebra,2.4660
63,2,9,99.1077,18.6233,Town1,env1.jpg,3,Lettuce head,8.1336
64,2,10,117.7592,13.4420,Town7,env7.jpg,1,Power tools,12.3123
65,2,10,117.7592,13.4420,Town7,env7.jpg,2,?,0.6554
66,2,10,117.7592,13.4420,Town7,env7.jpg,3,?,0.4724
67,2,11,131.2304,3.4508,Town6,env6.jpg,1,?,2.4824
68,2,11,131.2304,3.4508,Town6,env6.jpg,2,?,0.4782
69,2,11,131.2304,3.4508,Town6,env6.jpg,3,?,0.4882
70,2,12,134.7098,11.6505,Town5,env5.jpg,1,Benedict Cumberbatch,5.5712
71,2,12,134.7098,11.6505,Town5,env5.jpg,2,Flamingo,1.5900
72,2,12,134.7098,11.6505,Town5,env5.jpg,3,Hammers,4.4875
73,3,1,1.0012,13.6787,Town4,env4.jpg,1,Natalie Portman,9.4352
74,3,1,1.0012,13.6787,Town4,env4.jpg,2,Alligator,3.0718
75,3,1,1.0012,13.6787,Town4,env4.jpg,3,Saw,1.1677
76,3,2,14.7105,9.2567,Town2,env2.jpg,1,Mark Zuckerberg,5.1278
77,3,2,14.7105,9.2567,Town2,env2.jpg,2,Cucumbers,2.0164
78,3,2,14.7105,9.2567,Town2,env2.jpg,3,Kitten,2.1107
79,3,3,23.9982,7.6242,Town10,env10.jpg,1,Grapes,3.6727
80,3,3,23.9982,7.6242,Town10,env10.jpg,2,Duck,1.5755
81,3,3,23.9982,7.6242,Town10,env10.jpg,3,Katy Perry,2.3742
82,3,4,31.6528,7.6429,Town6,env6.jpg,1,?,6.3454
83,3,4,31.6528,7.6429,Town6,env6.jpg,2,?,0.6232
84,3,4,31.6528,7.6429,Town6,env6.jpg,3,?,0.6725
85,3,5,39.3268,6.0489,Town8,env8.jpg,1,Puppy,2.3439
86,3,5,39.3268,6.0489,Town8,env8.jpg,2,Beyonce,1.8873
87,3,5,39.3268,6.0489,Town8,env8.jpg,3,Lemons,1.8158
88,3,6,45.4062,7.4336,Town5,env5.jpg,1,Benedict Cumberbatch,4.7039
89,3,6,45.4062,7.4336,Town5,env5.jpg,2,Flamingo,1.7123
90,3,6,45.4062,7.4336,Town5,env5.jpg,3,Hammer,1.0155
91,3,7,52.8701,31.8920,Town7,env7.jpg,1,Power tool / power screwdriver,25.1248
92,3,7,52.8701,31.8920,Town7,env7.jpg,2,Jim Parsons,4.5748
93,3,7,52.8701,31.8920,Town7,env7.jpg,3,Giraffe,2.1905
94,3,8,84.7929,26.7870,Town1,env1.jpg,1,George Clooney,18.0431
95,3,8,84.7929,26.7870,Town1,env1.jpg,2,Zebra,3.7600
96,3,8,84.7929,26.7870,Town1,env1.jpg,3,Head of greens,4.9821
97,3,9,111.6112,8.9849,Town9,env9.jpg,1,Goat,2.0324
98,3,9,111.6112,8.9849,Town9,env9.jpg,2,Paul McCartney,4.5195
99,3,9,111.6112,8.9849,Town9,env9.jpg,3,Wrench,2.4312
100,3,10,120.6266,22.8722,Town3,env3.jpg,1,?,21.7276
101,3,10,120.6266,22.8722,Town3,env3.jpg,2,?,0.5750
102,3,10,120.6266,22.8722,Town3,env3.jpg,3,?,0.5678
103,3,11,143.5298,7.3765,Town12,env12.jpg,1,Zooey Daschanel,5.4967
104,3,11,143.5298,7.3765,Town12,env12.jpg,2,Panda,0.9663
105,3,11,143.5298,7.3765,Town12,env12.jpg,3,Apple,0.9117
106,3,12,150.9369,11.3930,Town11,env11.jpg,1,Carrot,4.6895
107,3,12,150.9369,11.3930,Town11,env11.jpg,2,Johnny Depp,4.6949
108,3,12,150.9369,11.3930,Town11,env11.jpg,3,Elephant,2.0069
109,4,1,1.0009,10.7117,Town2,env2.jpg,1,Mark Zuckerberg,6.4462
110,4,1,1.0009,10.7117,Town2,env2.jpg,2,Cucumbers,2.4378
111,4,1,1.0009,10.7117,Town2,env2.jpg,3,Kitten,1.8237
112,4,2,11.7451,7.4956,Town4,env4.jpg,1,Natalie Portman,3.6477
113,4,2,11.7451,7.4956,Town4,env4.jpg,2,Alligator,2.9341
114,4,2,11.7451,7.4956,Town4,env4.jpg,3,Saw,0.9118
115,4,3,19.2741,5.7419,Town8,env8.jpg,1,Puppy,1.7492
116,4,3,19.2741,5.7419,Town8,env8.jpg,2,Beyonce,1.6163
117,4,3,19.2741,5.7419,Town8,env8.jpg,3,Lemons,2.3746
118,4,4,25.0486,11.1683,Town7,env7.jpg,1,Power tool,6.4072
119,4,4,25.0486,11.1683,Town7,env7.jpg,2,Jim Parsons,2.7602
120,4,4,25.0486,11.1683,Town7,env7.jpg,3,Giraffe,1.9991
121,4,5,36.2496,7.0308,Town5,env5.jpg,1,Benedict Cumberbatch,4.6059
122,4,5,36.2496,7.0308,Town5,env5.jpg,2,Flamingo,1.4401
123,4,5,36.2496,7.0308,Town5,env5.jpg,3,Hammer,0.9831
124,4,6,43.3135,5.7197,Town11,env11.jpg,1,Carrot,2.2472
125,4,6,43.3135,5.7197,Town11,env11.jpg,2,Johnny Depp,1.8465
126,4,6,43.3135,5.7197,Town11,env11.jpg,3,Elephant,1.6242
127,4,7,49.0660,24.7871,Town3,env3.jpg,1,Emma Watson,15.0586
128,4,7,49.0660,24.7871,Town3,env3.jpg,2,Bear,3.5508
129,4,7,49.0660,24.7871,Town3,env3.jpg,3,Green screwdriver,6.1760
130,4,8,73.8863,5.8861,Town10,env10.jpg,1,Grapes,3.0784
131,4,8,73.8863,5.8861,Town10,env10.jpg,2,Duck,0.9995
132,4,8,73.8863,5.8861,Town10,env10.jpg,3,Katy Perry,1.8063
133,4,9,79.8053,6.9830,Town9,env9.jpg,1,Goat,2.0800
134,4,9,79.8053,6.9830,Town9,env9.jpg,2,Paul McCartney,2.9099
135,4,9,79.8053,6.9830,Town9,env9.jpg,3,Wrench,1.9910
136,4,10,86.8212,22.9118,Town6,env6.jpg,1,Cow,12.2636
137,4,10,86.8212,22.9118,Town6,env6.jpg,2,Tape Measure,5.1034
138,4,10,86.8212,22.9118,Town6,env6.jpg,3,Taylor Swift,5.5429
139,4,11,109.7661,7.6635,Town12,env12.jpg,1,Zooey Daschanel,5.0218
140,4,11,109.7661,7.6635,Town12,env12.jpg,2,Panda,1.3594
141,4,11,109.7661,7.6635,Town12,env12.jpg,3,Apple,1.2806
142,4,12,117.4627,12.3181,Town1,env1.jpg,1,Zebra,5.1426
143,4,12,117.4627,12.3181,Town1,env1.jpg,2,George Clooney,2.3825
144,4,12,117.4627,12.3181,Town1,env1.jpg,3,Head of greens / lettuce,4.7911
