index,run,trial,onset,duration,town,pic,itemNum,resp,respRT
1,1,1,1.0015,44.8111,Town1,env1,1,Cumberbatch,28.6358
2,1,1,1.0015,44.8111,Town1,env1,2,grapes,10.3225
3,1,1,1.0015,44.8111,Town1,env1,3,giraffe,5.8488
4,1,2,45.8590,26.6079,Town4,env4,1,Zuckerberg,19.6080
5,1,2,45.8590,26.6079,Town4,env4,2,lettuce,3.4069
6,1,2,45.8590,26.6079,Town4,env4,3,tape measure,3.5913
7,1,3,72.5133,22.6847,Town2,env2,1,clooney,5.9885
8,1,3,72.5133,22.6847,Town2,env2,2,screwdriver,8.3206
9,1,3,72.5133,22.6847,Town2,env2,3,bananas,8.3738
10,1,4,95.2458,24.0594,Town12,env12,1,deschanel,9.8639
11,1,4,95.2458,24.0594,Town12,env12,2,zebra,7.1389
12,1,4,95.2458,24.0594,Town12,env12,3,screwdriver,7.0548
13,1,5,119.3553,19.5827,Town5,env5,1, Swift,5.7500
14,1,5,119.3553,19.5827,Town5,env5,2,Watermelon,5.1038
15,1,5,119.3553,19.5827,Town5,env5,3,Bear,8.7272
16,1,6,138.9857,26.4689,Town3,env3,1,Depp,10.3694
17,1,6,138.9857,26.4689,Town3,env3,2,Oranges,7.3896
18,1,6,138.9857,26.4689,Town3,env3,3,screwdriv,8.7081
19,1,7,165.5010,20.4561,Town11,env11,1,Beyonce,10.6795
20,1,7,165.5010,20.4561,Town11,env11,2,hammer,5.3419
21,1,7,165.5010,20.4561,Town11,env11,3,aple,4.4328
22,1,8,186.0045,19.9283,Town10,env10,1,grapes,7.9753
23,1,8,186.0045,19.9283,Town10,env10,2,McCartney,5.9515
24,1,8,186.0045,19.9283,Town10,env10,3,puppy,5.9998
25,1,9,205.9814,12.4728,Town8,env8,1,beyonce,5.7997
26,1,9,205.9814,12.4728,Town8,env8,2,hammer,1.1986
27,1,9,205.9814,12.4728,Town8,env8,3,puppy,5.4726
28,1,10,218.5005,23.2594,Town6,env6,1,Swift,5.2262
29,1,10,218.5005,23.2594,Town6,env6,2,giraffe,7.1642
30,1,10,218.5005,23.2594,Town6,env6,3,tape measure,10.8670
31,1,11,241.8061,32.0091,Town9,env9,1,Katy Perry,9.0868
32,1,11,241.8061,32.0091,Town9,env9,2,apple,15.6397
33,1,11,241.8061,32.0091,Town9,env9,3,zebra,7.2808
34,1,12,273.8620,30.8980,Town7,env7,1,Jim Parsons,13.3750
35,1,12,273.8620,30.8980,Town7,env7,2,tape measure,9.5533
36,1,12,273.8620,30.8980,Town7,env7,3,oranges,7.9678
37,2,1,1.0026,7.9818,Town1,env1,1,clooney,4.2755
38,2,1,1.0026,7.9818,Town1,env1,2,lettuce,2.0220
39,2,1,1.0026,7.9818,Town1,env1,3,hammer,1.6803
40,2,2,9.0264,35.8380,Town12,env12,1,cumberbatch,23.9982
41,2,2,9.0264,35.8380,Town12,env12,2,stapler,8.6468
42,2,2,9.0264,35.8380,Town12,env12,3,apple,3.1913
43,2,3,44.9071,7.0293,Town8,env8,1,beyonce,2.6539
44,2,3,44.9071,7.0293,Town8,env8,2,puppy,2.4231
45,2,3,44.9071,7.0293,Town8,env8,3,oranges,1.9504
46,2,4,51.9769,12.5203,Town9,env9,1,mccartney,5.6467
47,2,4,51.9769,12.5203,Town9,env9,2,bananas,4.3836
48,2,4,51.9769,12.5203,Town9,env9,3,wrench,2.4881
49,2,5,64.5379,17.7989,Town7,env7,1,parsons,11.5626
50,2,5,64.5379,17.7989,Town7,env7,2,giraffe,1.7430
51,2,5,64.5379,17.7989,Town7,env7,3,wrench,4.4915
52,2,6,82.3773,15.7950,Town2,env2,1,zckerberg,7.8265
53,2,6,82.3773,15.7950,Town2,env2,2,cucumber,2.9278
54,2,6,82.3773,15.7950,Town2,env2,3,scissors,5.0389
55,2,7,98.2140,12.7893,Town4,env4,1,deschanel,9.6784
56,2,7,98.2140,12.7893,Town4,env4,2,apple,1.3099
57,2,7,98.2140,12.7893,Town4,env4,3,stapler,1.7991
58,2,8,111.0451,15.4224,Town3,env3,1,emma watson,8.0313
59,2,8,111.0451,15.4224,Town3,env3,2,bear,2.3199
60,2,8,111.0451,15.4224,Town3,env3,3,wrench,5.0694
61,2,9,126.5083,15.8354,Town6,env6,1,tswift,4.4137
62,2,9,126.5083,15.8354,Town6,env6,2,cow,0.9345
63,2,9,126.5083,15.8354,Town6,env6,3,tape measure,10.4855
64,2,10,142.3858,7.3026,Town5,env5,1,cumberbatch,3.1109
65,2,10,142.3858,7.3026,Town5,env5,2,flamingo,1.8859
66,2,10,142.3858,7.3026,Town5,env5,3,watermelon,2.3040
67,2,11,149.7290,21.1419,Town11,env11,1,depp,4.0148
68,2,11,149.7290,21.1419,Town11,env11,2,dck,14.4060
69,2,11,149.7290,21.1419,Town11,env11,3,grapes,2.7190
70,2,12,170.9115,10.7688,Town10,env10,1,katy perry,2.6534
71,2,12,170.9115,10.7688,Town10,env10,2,carrot,3.1674
72,2,12,170.9115,10.7688,Town10,env10,3,hammer,4.9462
73,3,1,1.0027,7.4141,Town11,env11,1,carrot,4.6749
74,3,1,1.0027,7.4141,Town11,env11,2,hammer,1.2879
75,3,1,1.0027,7.4141,Town11,env11,3,depp,1.4473
76,3,2,8.4656,8.9591,Town9,env9,1,mccartney,5.4849
77,3,2,8.4656,8.9591,Town9,env9,2,wrench,1.8876
78,3,2,8.4656,8.9591,Town9,env9,3,banana,1.5849
79,3,3,17.4725,8.4715,Town10,env10,1,grapes,3.3187
80,3,3,17.4725,8.4715,Town10,env10,2,Perry,3.0389
81,3,3,17.4725,8.4715,Town10,env10,3,duck,2.1122
82,3,4,25.9932,6.3074,Town1,env1,1,clooney,3.2227
83,3,4,25.9932,6.3074,Town1,env1,2,zebra,1.3918
84,3,4,25.9932,6.3074,Town1,env1,3,lettuce,1.6909
85,3,5,32.3488,12.1000,Town7,env7,1,parsons,8.2679
86,3,5,32.3488,12.1000,Town7,env7,2,drill,1.8306
87,3,5,32.3488,12.1000,Town7,env7,3,giraffe,1.9997
88,3,6,44.4969,6.6251,Town12,env12,1,stapler,3.0397
89,3,6,44.4969,6.6251,Town12,env12,2,deschanel,2.1910
90,3,6,44.4969,6.6251,Town12,env12,3,apple,1.3927
91,3,7,51.1703,13.2484,Town6,env6,1,cow,5.1263
92,3,7,51.1703,13.2484,Town6,env6,2,TSwift,3.7109
93,3,7,51.1703,13.2484,Town6,env6,3,tape measure,4.4090
94,3,8,64.4679,7.8625,Town8,env8,1,puppy,4.4039
95,3,8,64.4679,7.8625,Town8,env8,2,orange,1.5998
96,3,8,64.4679,7.8625,Town8,env8,3,Beyonce,1.8570
97,3,9,72.3793,15.5980,Town3,env3,1,bear,4.1169
98,3,9,72.3793,15.5980,Town3,env3,2,Emma Watson,6.0323
99,3,9,72.3793,15.5980,Town3,env3,3,screwdriver,5.4471
100,3,10,88.0257,9.8320,Town2,env2,1,zuckerberg,4.1749
101,3,10,88.0257,9.8320,Town2,env2,2,cucumbers,3.8242
102,3,10,88.0257,9.8320,Town2,env2,3,scissors,1.8310
103,3,11,97.9062,8.9513,Town5,env5,1,watermelon,3.5744
104,3,11,97.9062,8.9513,Town5,env5,2,cumberbatch,2.8311
105,3,11,97.9062,8.9513,Town5,env5,3,flamingo,2.5441
106,3,12,106.9056,71.5875,Town4,env4,1,cooney,67.9158
107,3,12,106.9056,71.5875,Town4,env4,2,zebra,2.1737
108,3,12,106.9056,71.5875,Town4,env4,3,lettuce,1.4962
109,4,1,1.0014,13.0296,Town9,env9,1,Wrench,8.1407
110,4,1,1.0014,13.0296,Town9,env9,2,bananas,1.8230
111,4,1,1.0014,13.0296,Town9,env9,3,mccartney,3.0618
112,4,2,14.0819,12.1902,Town3,env3,1,bear,2.7256
113,4,2,14.0819,12.1902,Town3,env3,2,emma watson,4.4147
114,4,2,14.0819,12.1902,Town3,env3,3,screwdriver,5.0481
115,4,3,26.3212,8.3019,Town12,env12,1,stapler,3.6700
116,4,3,26.3212,8.3019,Town12,env12,2,deschanel,3.4706
117,4,3,26.3212,8.3019,Town12,env12,3,apple,1.1596
118,4,4,34.6738,9.3260,Town1,env1,1,clooney,5.4776
119,4,4,34.6738,9.3260,Town1,env1,2,zebra,2.0383
120,4,4,34.6738,9.3260,Town1,env1,3,lettuce,1.8083
121,4,5,44.0545,5.2415,Town11,env11,1,carrot,2.7035
122,4,5,44.0545,5.2415,Town11,env11,2,hammer,1.0562
123,4,5,44.0545,5.2415,Town11,env11,3,depp,1.4801
124,4,6,49.3450,9.1504,Town4,env4,1,saw,2.8147
125,4,6,49.3450,9.1504,Town4,env4,2,alligator,1.8378
126,4,6,49.3450,9.1504,Town4,env4,3,natalie portman,4.4961
127,4,7,58.5471,6.2287,Town10,env10,1,grapes,2.4836
128,4,7,58.5471,6.2287,Town10,env10,2,Perry,1.8468
129,4,7,58.5471,6.2287,Town10,env10,3,duck,1.8965
130,4,8,64.8257,7.0453,Town7,env7,1,parsons,3.6285
131,4,8,64.8257,7.0453,Town7,env7,2,drill,1.5922
132,4,8,64.8257,7.0453,Town7,env7,3,giraffe,1.8228
133,4,9,71.9205,8.7515,Town6,env6,1,cow,2.6136
134,4,9,71.9205,8.7515,Town6,env6,2,tswift,3.5437
135,4,9,71.9205,8.7515,Town6,env6,3,tape measure,2.5924
136,4,10,80.7218,8.4696,Town5,env5,1,watermelon,4.4055
137,4,10,80.7218,8.4696,Town5,env5,2,cumberbatch,2.3988
138,4,10,80.7218,8.4696,Town5,env5,3,flamingo,1.6633
139,4,11,89.2419,9.7094,Town2,env2,1,zuckerberg,5.2608
140,4,11,89.2419,9.7094,Town2,env2,2,cucumbers,2.5911
141,4,11,89.2419,9.7094,Town2,env2,3,scissors,1.8558
142,4,12,99.0025,8.0203,Town8,env8,1,puppy,4.0450
143,4,12,99.0025,8.0203,Town8,env8,2,oranges,1.3912
144,4,12,99.0025,8.0203,Town8,env8,3,Beyonce,2.5822
145,5,1,1.0025,6.9672,Town8,env8,1,puppy,3.5489
146,5,1,1.0025,6.9672,Town8,env8,2,oranges,1.6064
147,5,1,1.0025,6.9672,Town8,env8,3,beyonce,1.8076
148,5,2,8.0159,6.1776,Town1,env1,1,clooney,2.5927
149,5,2,8.0159,6.1776,Town1,env1,2,zebra,1.4956
150,5,2,8.0159,6.1776,Town1,env1,3,lettuce,2.0874
151,5,3,14.2395,10.6088,Town2,env2,1,zuckerberg,3.9688
152,5,3,14.2395,10.6088,Town2,env2,2,cucumbers,2.7358
153,5,3,14.2395,10.6088,Town2,env2,3,scissors,3.9024
154,5,4,24.8944,8.7789,Town3,env3,1,bear,2.7943
155,5,4,24.8944,8.7789,Town3,env3,2,emma watson,2.4378
156,5,4,24.8944,8.7789,Town3,env3,3,screwdriver,3.5449
157,5,5,33.7197,7.1921,Town12,env12,1,stapler,2.7449
158,5,5,33.7197,7.1921,Town12,env12,2,deschanel,2.7748
159,5,5,33.7197,7.1921,Town12,env12,3,apple,1.6705
160,5,6,40.9577,9.7867,Town4,env4,1,saw,2.6666
161,5,6,40.9577,9.7867,Town4,env4,2,alligator,1.8552
162,5,6,40.9577,9.7867,Town4,env4,3,natalie portman,5.2632
163,5,7,50.7906,7.2899,Town9,env9,1,wrench,3.6177
164,5,7,50.7906,7.2899,Town9,env9,2,banana,1.0223
165,5,7,50.7906,7.2899,Town9,env9,3,mccartney,2.6481
166,5,8,58.1268,6.6502,Town7,env7,1,parsons,3.5774
167,5,8,58.1268,6.6502,Town7,env7,2,drill,1.1913
168,5,8,58.1268,6.6502,Town7,env7,3,giraffe,1.8796
169,5,9,64.8231,5.5769,Town11,env11,1,carrot,3.1374
170,5,9,64.8231,5.5769,Town11,env11,2,hammer,1.0076
171,5,9,64.8231,5.5769,Town11,env11,3,depp,1.4300
172,5,10,70.4461,8.9857,Town5,env5,1,watermelon,3.4105
173,5,10,70.4461,8.9857,Town5,env5,2,cumberbatch,3.1748
174,5,10,70.4461,8.9857,Town5,env5,3,flamingo,2.3985
175,5,11,79.4777,8.3474,Town10,env10,1,grapes,2.9070
176,5,11,79.4777,8.3474,Town10,env10,2,perry,2.3180
177,5,11,79.4777,8.3474,Town10,env10,3,duck,3.1206
178,5,12,87.8718,8.2560,Town6,env6,1,cow,2.5120
179,5,12,87.8718,8.2560,Town6,env6,2,tswift,2.1827
180,5,12,87.8718,8.2560,Town6,env6,3,tape measure,3.5597
