index,run,trial,onset,duration,town,pic,itemNum,resp,respRT
1,1,1,1.0012,55.4749,Town4,env4,1,stapler,21.2583
2,1,1,1.0012,55.4749,Town4,env4,2,zoey,28.5160
3,1,1,1.0012,55.4749,Town4,env4,3,apple,5.6966
4,1,2,56.5225,24.0780,Town5,env5,1,Emma Watson,14.7433
5,1,2,56.5225,24.0780,Town5,env5,2,?,8.7882
6,1,2,56.5225,24.0780,Town5,env5,3,?,0.5448
7,1,3,80.6457,20.4260,Town10,env10,1,Katy Perry,12.7767
8,1,3,80.6457,20.4260,Town10,env10,2,Broccoli,4.0559
9,1,3,80.6457,20.4260,Town10,env10,3,Screwdriver,3.5917
10,1,4,101.1172,26.7102,Town11,env11,1,paul mccartney,15.9020
11,1,4,101.1172,26.7102,Town11,env11,2,wrench,2.5656
12,1,4,101.1172,26.7102,Town11,env11,3,broccoli,8.2407
13,1,5,127.8729,30.4256,Town8,env8,1,taylor swift,9.7209
14,1,5,127.8729,30.4256,Town8,env8,2,wrench,12.7192
15,1,5,127.8729,30.4256,Town8,env8,3,bear,7.9838
16,1,6,158.3437,13.4025,Town2,env2,1,dog,6.6026
17,1,6,158.3437,13.4025,Town2,env2,2,Emma Watson,6.3109
18,1,6,158.3437,13.4025,Town2,env2,3,?,0.4873
19,1,7,171.7928,16.4582,Town6,env6,1,Natalie Portman,11.6009
20,1,7,171.7928,16.4582,Town6,env6,2,?,4.3607
21,1,7,171.7928,16.4582,Town6,env6,3,?,0.4947
22,1,8,188.2962,2.5633,Town1,env1,1,?,1.5784
23,1,8,188.2962,2.5633,Town1,env1,2,?,0.4796
24,1,8,188.2962,2.5633,Town1,env1,3,?,0.5034
25,1,9,190.9055,22.8730,Town9,env9,1,Paul McCartney,7.9047
26,1,9,190.9055,22.8730,Town9,env9,2,drill,13.9496
27,1,9,190.9055,22.8730,Town9,env9,3,giraffe,1.0166
28,1,10,213.8238,5.0172,Town7,env7,1,?,4.0632
29,1,10,213.8238,5.0172,Town7,env7,2,?,0.4718
30,1,10,213.8238,5.0172,Town7,env7,3,?,0.4804
31,1,11,218.8865,20.7420,Town12,env12,1,George Clooney,12.9010
32,1,11,218.8865,20.7420,Town12,env12,2,dog,2.2150
33,1,11,218.8865,20.7420,Town12,env12,3,?wrench,5.6242
34,1,12,239.6760,4.9198,Town3,env3,1,?,1.4718
35,1,12,239.6760,4.9198,Town3,env3,2,?,1.2555
36,1,12,239.6760,4.9198,Town3,env3,3,?,2.1907
37,2,1,1.0013,12.3752,Town9,env9,1,paul mccartney,9.5565
38,2,1,1.0013,12.3752,Town9,env9,2,bananas,1.6314
39,2,1,1.0013,12.3752,Town9,env9,3,wrench,1.1833
40,2,2,13.4263,39.0893,Town12,env12,1,zoey,31.9288
41,2,2,13.4263,39.0893,Town12,env12,2,apple,4.5187
42,2,2,13.4263,39.0893,Town12,env12,3,?,2.6400
43,2,3,52.5637,7.2633,Town11,env11,1,johnny depp,5.2464
44,2,3,52.5637,7.2633,Town11,env11,2,hammer,1.0397
45,2,3,52.5637,7.2633,Town11,env11,3,carrot,0.9755
46,2,4,59.8754,14.1494,Town6,env6,1,measuring tape,10.4121
47,2,4,59.8754,14.1494,Town6,env6,2,cow,0.7665
48,2,4,59.8754,14.1494,Town6,env6,3,taylor swift,2.9689
49,2,5,74.0737,22.6416,Town1,env1,1,?,21.5696
50,2,5,74.0737,22.6416,Town1,env1,2,?,0.5347
51,2,5,74.0737,22.6416,Town1,env1,3,?,0.5356
52,2,6,96.7635,6.4555,Town8,env8,1,Beyonce,4.8303
53,2,6,96.7635,6.4555,Town8,env8,2,orange,1.2329
54,2,6,96.7635,6.4555,Town8,env8,3,,0.3905
55,2,7,103.2685,22.7603,Town3,env3,1,Emma Watson,12.3592
56,2,7,103.2685,22.7603,Town3,env3,2,bear,2.1820
57,2,7,103.2685,22.7603,Town3,env3,3,apple,8.2174
58,2,8,126.0769,7.6632,Town2,env2,1,Zuckerberg,5.5747
59,2,8,126.0769,7.6632,Town2,env2,2,cucumber,1.1424
60,2,8,126.0769,7.6632,Town2,env2,3,scissors,0.9444
61,2,9,133.7907,30.5734,Town7,env7,1,Sheldon Cooper,13.8770
62,2,9,133.7907,30.5734,Town7,env7,2,drill,5.2463
63,2,9,133.7907,30.5734,Town7,env7,3,?,11.4483
64,2,10,164.4137,11.8612,Town10,env10,1,Katy Perry,5.5652
65,2,10,164.4137,11.8612,Town10,env10,2,,5.9667
66,2,10,164.4137,11.8612,Town10,env10,3,,0.3274
67,2,11,176.3243,17.7377,Town5,env5,1,flamengo,10.3718
68,2,11,176.3243,17.7377,Town5,env5,2,watermelon,6.7160
69,2,11,176.3243,17.7377,Town5,env5,3,,0.6479
70,2,12,194.1105,13.5844,Town4,env4,1,?,12.4881
71,2,12,194.1105,13.5844,Town4,env4,2,?,0.5036
72,2,12,194.1105,13.5844,Town4,env4,3,?,0.5909
73,3,1,1.0018,13.4562,Town4,env4,1,saw,10.2609
74,3,1,1.0018,13.4562,Town4,env4,2,crocodile,1.4221
75,3,1,1.0018,13.4562,Town4,env4,3,natalie portman,1.7691
76,3,2,14.5057,14.5450,Town3,env3,1,screwdriver,12.6011
77,3,2,14.5057,14.5450,Town3,env3,2,emmat watson,1.4234
78,3,2,14.5057,14.5450,Town3,env3,3,bear,0.5188
79,3,3,29.0982,11.1044,Town1,env1,1,george clooney,7.6570
80,3,3,29.0982,11.1044,Town1,env1,2,zebra,1.5340
81,3,3,29.0982,11.1044,Town1,env1,3,cabbage,1.9116
82,3,4,40.2491,28.1310,Town6,env6,1,taylor swift,25.7386
83,3,4,40.2491,28.1310,Town6,env6,2,measuring tape,1.4481
84,3,4,40.2491,28.1310,Town6,env6,3,cow,0.9427
85,3,5,68.4267,13.6811,Town12,env12,1,stapler,9.4074
86,3,5,68.4267,13.6811,Town12,env12,2,apple,0.9677
87,3,5,68.4267,13.6811,Town12,env12,3,zoey,3.3043
88,3,6,82.1541,11.1102,Town11,env11,1,johnny depp,8.1821
89,3,6,82.1541,11.1102,Town11,env11,2,hammer,0.9678
90,3,6,82.1541,11.1102,Town11,env11,3,carrot,1.9585
91,3,7,93.3111,11.2616,Town10,env10,1,grapes,3.7997
92,3,7,93.3111,11.2616,Town10,env10,2,katy perry,1.8084
93,3,7,93.3111,11.2616,Town10,env10,3,dck,5.6517
94,3,8,104.6191,9.7777,Town2,env2,1,mark zuckerberg,7.2656
95,3,8,104.6191,9.7777,Town2,env2,2,cucumber,1.4304
96,3,8,104.6191,9.7777,Town2,env2,3,scissors,1.0800
97,3,9,114.4431,16.2907,Town8,env8,1,oranges,11.3924
98,3,9,114.4431,16.2907,Town8,env8,2,beyonce,4.3531
99,3,9,114.4431,16.2907,Town8,env8,3,dog,0.5435
100,3,10,130.7822,13.2191,Town9,env9,1,paul mccartney,10.9225
101,3,10,130.7822,13.2191,Town9,env9,2,bananas,1.1033
102,3,10,130.7822,13.2191,Town9,env9,3,wrench,1.1917
103,3,11,144.0497,9.5986,Town5,env5,1,watermelon,7.6547
104,3,11,144.0497,9.5986,Town5,env5,2,flamingo,1.2554
105,3,11,144.0497,9.5986,Town5,env5,3,?,0.6868
106,3,12,153.6959,13.3066,Town7,env7,1,sheldon cooper,5.0126
107,3,12,153.6959,13.3066,Town7,env7,2,drill,7.2619
108,3,12,153.6959,13.3066,Town7,env7,3,giraffe,1.0303
109,4,1,1.0019,15.0048,Town4,env4,1,saw,7.4208
110,4,1,1.0019,15.0048,Town4,env4,2,crocodile,1.7195
111,4,1,1.0019,15.0048,Town4,env4,3,ntalie portman,5.8606
112,4,2,16.0503,6.1000,Town11,env11,1,johnny depp,4.4359
113,4,2,16.0503,6.1000,Town11,env11,2,hammer,0.8638
114,4,2,16.0503,6.1000,Town11,env11,3,carrot,0.7986
115,4,3,22.1944,8.5511,Town9,env9,1,paul mccartney,6.7261
116,4,3,22.1944,8.5511,Town9,env9,2,wrench,0.9679
117,4,3,22.1944,8.5511,Town9,env9,3,bananas,0.8552
118,4,4,30.7885,5.9806,Town2,env2,1,mark zuckerberg,3.7070
119,4,4,30.7885,5.9806,Town2,env2,2,cucumbers,1.2476
120,4,4,30.7885,5.9806,Town2,env2,3,scissors,1.0244
121,4,5,36.8154,6.6893,Town10,env10,1,grapes,3.1056
122,4,5,36.8154,6.6893,Town10,env10,2,katy perry,1.3675
123,4,5,36.8154,6.6893,Town10,env10,3,duck,2.2145
124,4,6,43.5478,14.9969,Town1,env1,1,george clooney,7.3416
125,4,6,43.5478,14.9969,Town1,env1,2,zebra,1.0946
126,4,6,43.5478,14.9969,Town1,env1,3,cookie,6.5585
127,4,7,58.5903,8.4423,Town6,env6,1,taylor swift,5.7711
128,4,7,58.5903,8.4423,Town6,env6,2,measuring tape,1.6858
129,4,7,58.5903,8.4423,Town6,env6,3,cow,0.9837
130,4,8,67.0770,7.7404,Town12,env12,1,zoey,3.7071
131,4,8,67.0770,7.7404,Town12,env12,2,apple,2.6719
132,4,8,67.0770,7.7404,Town12,env12,3,stapler,1.3596
133,4,9,74.8605,9.1540,Town3,env3,1,bear,4.9218
134,4,9,74.8605,9.1540,Town3,env3,2,emma watson,2.3585
135,4,9,74.8605,9.1540,Town3,env3,3,screwdriver,1.8720
136,4,10,84.0584,38.3619,Town7,env7,1,jim parsons,5.5715
137,4,10,84.0584,38.3619,Town7,env7,2,drill,4.4961
138,4,10,84.0584,38.3619,Town7,env7,3,giraffe,28.2926
139,4,11,122.4651,9.7374,Town8,env8,1,orange,8.0577
140,4,11,122.4651,9.7374,Town8,env8,2,beyonce,1.0148
141,4,11,122.4651,9.7374,Town8,env8,3,dogs,0.6632
142,4,12,132.2472,12.8756,Town5,env5,1,flamingo,3.2355
143,4,12,132.2472,12.8756,Town5,env5,2,?,5.0393
144,4,12,132.2472,12.8756,Town5,env5,3,watermelon,4.5991
145,5,1,1.0019,16.8920,Town12,env12,1,aple,5.1924
146,5,1,1.0019,16.8920,Town12,env12,2,Zooey ,6.9044
147,5,1,1.0019,16.8920,Town12,env12,3,stapler,4.7914
148,5,2,17.9358,7.9172,Town4,env4,1,saw,4.4999
149,5,2,17.9358,7.9172,Town4,env4,2,crocodile,1.3357
150,5,2,17.9358,7.9172,Town4,env4,3,natalie portman,2.0798
151,5,3,25.8946,6.9906,Town7,env7,1,sheldon cooper,3.4052
152,5,3,25.8946,6.9906,Town7,env7,2,drill,2.5996
153,5,3,25.8946,6.9906,Town7,env7,3,giraffe,0.9841
154,5,4,32.9276,9.2097,Town9,env9,1,paul mccartey,7.4458
155,5,4,32.9276,9.2097,Town9,env9,2,wrench,0.9179
156,5,4,32.9276,9.2097,Town9,env9,3,bananas,0.8442
157,5,5,42.1782,11.6348,Town8,env8,1,orange,8.7700
158,5,5,42.1782,11.6348,Town8,env8,2,beyonce,1.7198
159,5,5,42.1782,11.6348,Town8,env8,3,dog,1.1432
160,5,6,53.8538,46.1563,Town3,env3,1,emma watson,9.1548
161,5,6,53.8538,46.1563,Town3,env3,2,bear,2.5985
162,5,6,53.8538,46.1563,Town3,env3,3,rock,34.4011
163,5,7,100.0516,7.1029,Town11,env11,1,johnny depp,4.9882
164,5,7,100.0516,7.1029,Town11,env11,2,carrot,1.1915
165,5,7,100.0516,7.1029,Town11,env11,3,hammer,0.9212
166,5,8,107.1957,7.7498,Town2,env2,1,mark zuckerberg,4.7404
167,5,8,107.1957,7.7498,Town2,env2,2,cucumber,1.3832
168,5,8,107.1957,7.7498,Town2,env2,3,scissors,1.6245
169,5,9,114.9874,8.6463,Town6,env6,1,taylor swift,4.9807
170,5,9,114.9874,8.6463,Town6,env6,2,measuring tape,2.0080
171,5,9,114.9874,8.6463,Town6,env6,3,whale,1.6559
172,5,10,123.6754,16.3230,Town1,env1,1,george clooney,5.2218
173,5,10,123.6754,16.3230,Town1,env1,2,zebra,2.0221
174,5,10,123.6754,16.3230,Town1,env1,3,wrench,9.0773
175,5,11,140.0392,9.6474,Town5,env5,1,flamingo,3.6550
176,5,11,140.0392,9.6474,Town5,env5,2,watermelon,5.1196
177,5,11,140.0392,9.6474,Town5,env5,3,?,0.8712
178,5,12,149.7272,9.6324,Town10,env10,1,grapes,6.3350
179,5,12,149.7272,9.6324,Town10,env10,2,katy perry,2.0723
180,5,12,149.7272,9.6324,Town10,env10,3,duck,1.2235
