index,run,trial,onset,duration,cond,rep,resp,acc,respRT,ISIresp,ISIacc,ISIrespRT
1,1,1,12.0030,1.5985,tool,0,NR,0,999.0000,NR,0,999.0000
2,1,2,13.6032,1.5977,tool,0,NR,0,999.0000,NR,0,999.0000
3,1,3,15.2011,1.6001,tool,0,0,1,0.3837,NR,0,999.0000
4,1,4,16.8013,1.5997,tool,1,1,1,0.4113,NR,0,999.0000
5,1,5,18.4012,1.5999,tool,0,0,1,0.4196,NR,0,999.0000
6,1,6,20.0012,1.6001,tool,0,0,1,0.4397,NR,0,999.0000
7,1,7,21.6015,1.5996,tool,1,1,1,0.5093,NR,0,999.0000
8,1,8,23.2013,1.5993,tool,0,0,1,0.3769,NR,0,999.0000
9,1,9,24.8008,1.5994,tool,0,0,1,0.3740,NR,0,999.0000
10,1,10,26.4004,1.6004,tool,1,1,1,0.5400,NR,0,999.0000
11,1,11,28.0109,9.9896,rest,0,NR,1,999.0000,NR,1,0.0000
12,1,12,38.0008,1.6002,fruitveg,0,NR,0,999.0000,NR,0,999.0000
13,1,13,39.6012,1.5996,fruitveg,0,0,1,0.4147,NR,0,999.0000
14,1,14,41.2010,1.5991,fruitveg,1,1,1,0.4472,NR,0,999.0000
15,1,15,42.8003,1.5998,fruitveg,0,0,1,0.4178,NR,0,999.0000
16,1,16,44.4004,1.6011,fruitveg,0,0,1,0.4588,NR,0,999.0000
17,1,17,46.0016,1.5996,fruitveg,0,0,1,0.4302,NR,0,999.0000
18,1,18,47.6014,1.5990,fruitveg,0,0,1,0.4238,NR,0,999.0000
19,1,19,49.2006,1.6002,fruitveg,1,1,1,0.3476,NR,0,999.0000
20,1,20,50.8010,1.5995,fruitveg,0,0,1,0.3689,NR,0,999.0000
21,1,21,52.4008,1.5994,fruitveg,1,1,1,0.5507,NR,0,999.0000
22,1,22,54.0115,9.9890,rest,0,NR,1,999.0000,NR,1,0.0000
23,1,23,64.0008,1.5996,tool,0,NR,0,999.0000,NR,0,999.0000
24,1,24,65.6005,1.6004,tool,0,0,1,0.4359,NR,0,999.0000
25,1,25,67.2012,1.5994,tool,1,1,1,0.3203,NR,0,999.0000
26,1,26,68.8007,1.6005,tool,0,0,1,0.4299,NR,0,999.0000
27,1,27,70.4015,1.5994,tool,1,1,1,0.4498,NR,0,999.0000
28,1,28,72.0011,1.5995,tool,0,0,1,0.3926,NR,0,999.0000
29,1,29,73.6008,1.6005,tool,0,0,1,0.5643,NR,0,999.0000
30,1,30,75.2014,1.5989,tool,1,1,1,0.5055,NR,0,999.0000
31,1,31,76.8006,1.6006,tool,0,0,1,0.4327,NR,0,999.0000
32,1,32,78.4013,1.5996,tool,0,0,1,0.3819,NR,0,999.0000
33,1,33,80.0120,9.9887,rest,0,NR,1,999.0000,NR,1,0.0000
34,1,34,90.0009,1.5999,tool,0,NR,0,999.0000,NR,0,999.0000
35,1,35,91.6011,1.6001,tool,0,0,1,0.3822,NR,0,999.0000
36,1,36,93.2014,1.5994,tool,0,0,1,0.3795,NR,0,999.0000
37,1,37,94.8010,1.5995,tool,0,0,1,0.3968,NR,0,999.0000
38,1,38,96.4006,1.5996,tool,1,1,1,0.5497,NR,0,999.0000
39,1,39,98.0004,1.6000,tool,0,0,1,0.4872,NR,0,999.0000
40,1,40,99.6006,1.6005,tool,1,1,1,0.3984,NR,0,999.0000
41,1,41,101.2012,1.6001,tool,0,0,1,0.3784,NR,0,999.0000
42,1,42,102.8015,1.5992,tool,0,0,1,0.4450,NR,0,999.0000
43,1,43,104.4009,1.6005,tool,1,1,1,0.3431,NR,0,999.0000
44,1,44,106.0125,9.9884,rest,0,NR,1,999.0000,NR,1,0.0000
45,1,45,116.0012,1.5994,animal,0,NR,0,999.0000,NR,0,999.0000
46,1,46,117.6008,1.5997,animal,0,0,1,0.3989,NR,0,999.0000
47,1,47,119.2007,1.6006,animal,0,NR,0,999.0000,0,1,0.3674
48,1,48,120.8015,1.5995,animal,1,1,1,0.4662,NR,0,999.0000
49,1,49,122.4011,1.5999,animal,0,0,1,0.5467,NR,0,999.0000
50,1,50,124.0012,1.5997,animal,1,1,1,0.4377,NR,0,999.0000
51,1,51,125.6011,1.5998,animal,0,0,1,0.4155,NR,0,999.0000
52,1,52,127.2011,1.6000,animal,1,NR,0,999.0000,1,1,0.1400
53,1,53,128.8013,1.5996,animal,0,NR,0,999.0000,NR,0,999.0000
54,1,54,130.4011,1.5996,animal,0,NR,0,999.0000,NR,0,999.0000
55,1,55,132.0131,9.9879,rest,0,NR,1,999.0000,NR,1,0.0000
56,1,56,142.0013,1.5987,virtualtown,0,NR,0,999.0000,NR,0,999.0000
57,1,57,143.6002,1.6010,virtualtown,0,0,1,0.5853,NR,0,999.0000
58,1,58,145.2014,1.5995,virtualtown,1,1,1,0.5107,NR,0,999.0000
59,1,59,146.8011,1.6000,virtualtown,0,NR,0,999.0000,NR,0,999.0000
60,1,60,148.4013,1.5994,virtualtown,0,0,1,0.5262,NR,0,999.0000
61,1,61,150.0008,1.5997,virtualtown,1,1,1,0.4871,NR,0,999.0000
62,1,62,151.6008,1.5995,virtualtown,0,0,1,0.4788,NR,0,999.0000
63,1,63,153.2005,1.6004,virtualtown,0,0,1,0.5548,NR,0,999.0000
64,1,64,154.8010,1.6000,virtualtown,0,NR,0,999.0000,0,1,0.2476
65,1,65,156.4012,1.6001,virtualtown,1,NR,0,999.0000,1,1,0.0289
66,1,66,158.0136,9.9870,rest,0,NR,1,999.0000,NR,1,0.0000
67,1,67,168.0009,1.5997,face,0,NR,0,999.0000,NR,0,999.0000
68,1,68,169.6008,1.6006,face,0,0,1,0.4573,NR,0,999.0000
69,1,69,171.2016,1.5996,face,1,NR,0,999.0000,NR,0,999.0000
70,1,70,172.8013,1.5997,face,0,0,1,0.5229,NR,0,999.0000
71,1,71,174.4012,1.6000,face,0,0,1,0.4191,NR,0,999.0000
72,1,72,176.0014,1.5989,face,0,0,1,0.4175,NR,0,999.0000
73,1,73,177.6005,1.6000,face,1,1,1,0.4508,NR,0,999.0000
74,1,74,179.2007,1.6000,face,0,0,1,0.4330,NR,0,999.0000
75,1,75,180.8009,1.5995,face,0,0,1,0.4649,NR,0,999.0000
76,1,76,182.4006,1.5999,face,1,NR,0,999.0000,1,1,0.1353
77,1,77,184.0142,9.9864,rest,0,NR,1,999.0000,NR,1,0.0000
78,1,78,194.0009,1.6001,fruitveg,0,NR,0,999.0000,NR,0,999.0000
79,1,79,195.6012,1.5989,fruitveg,0,0,1,0.4163,NR,0,999.0000
80,1,80,197.2002,1.6003,fruitveg,1,1,1,0.5642,NR,0,999.0000
81,1,81,198.8007,1.6006,fruitveg,0,0,1,0.5238,NR,0,999.0000
82,1,82,200.4015,1.5990,fruitveg,0,0,1,0.5020,NR,0,999.0000
83,1,83,202.0008,1.6000,fruitveg,1,1,1,0.5557,NR,0,999.0000
84,1,84,203.6010,1.5997,fruitveg,0,0,1,0.4369,NR,0,999.0000
85,1,85,205.2009,1.6002,fruitveg,0,0,1,0.4280,NR,0,999.0000
86,1,86,206.8013,1.6001,fruitveg,0,0,1,0.4270,NR,0,999.0000
87,1,87,208.4016,1.5992,fruitveg,1,1,1,0.3391,NR,0,999.0000
88,1,88,210.0149,9.9863,rest,0,NR,1,999.0000,NR,1,0.0000
89,1,89,220.0014,1.5991,face,0,NR,0,999.0000,NR,0,999.0000
90,1,90,221.6007,1.6001,face,0,0,1,0.4581,NR,0,999.0000
91,1,91,223.2010,1.6001,face,1,1,1,0.4420,NR,0,999.0000
92,1,92,224.8013,1.5993,face,0,0,1,0.3967,NR,0,999.0000
93,1,93,226.4008,1.6004,face,0,0,1,0.4527,NR,0,999.0000
94,1,94,228.0015,1.5992,face,1,1,1,0.5487,NR,0,999.0000
95,1,95,229.6009,1.5992,face,0,0,1,0.4275,NR,0,999.0000
96,1,96,231.2002,1.6006,face,0,0,1,0.5178,NR,0,999.0000
97,1,97,232.8010,1.6002,face,1,1,1,0.3885,NR,0,999.0000
98,1,98,234.4014,1.5998,face,0,0,1,0.5244,NR,0,999.0000
99,1,99,236.0155,9.9855,rest,0,NR,1,999.0000,NR,1,0.0000
100,1,100,246.0013,1.5994,virtualtown,0,NR,0,999.0000,NR,0,999.0000
101,1,101,247.6009,1.6002,virtualtown,0,0,1,0.4340,NR,0,999.0000
102,1,102,249.2013,1.5992,virtualtown,1,1,1,0.4368,NR,0,999.0000
103,1,103,250.8007,1.5994,virtualtown,0,0,1,0.3923,NR,0,999.0000
104,1,104,252.4003,1.6002,virtualtown,0,NR,0,999.0000,0,1,0.0375
105,1,105,254.0007,1.6000,virtualtown,1,1,1,0.5766,NR,0,999.0000
106,1,106,255.6008,1.5999,virtualtown,0,0,1,0.5552,NR,0,999.0000
107,1,107,257.2009,1.6000,virtualtown,0,0,1,0.5222,NR,0,999.0000
108,1,108,258.8012,1.5999,virtualtown,0,0,1,0.4807,NR,0,999.0000
109,1,109,260.4013,1.6001,virtualtown,1,1,1,0.5180,NR,0,999.0000
110,1,110,262.0160,9.9847,rest,0,NR,1,999.0000,NR,1,0.0000
111,1,111,272.0010,1.5996,animal,0,NR,0,999.0000,NR,0,999.0000
112,1,112,273.6007,1.5994,animal,0,0,1,0.4024,NR,0,999.0000
113,1,113,275.2003,1.5999,animal,0,0,1,0.4465,NR,0,999.0000
114,1,114,276.8004,1.6006,animal,1,0,0,0.3946,1,1,0.0088
115,1,115,278.4012,1.5989,animal,0,0,1,0.4811,NR,0,999.0000
116,1,116,280.0003,1.6001,animal,1,NR,0,999.0000,1,1,0.0103
117,1,117,281.6006,1.5998,animal,0,0,1,0.5345,NR,0,999.0000
118,1,118,283.2006,1.6001,animal,0,NR,0,999.0000,0,1,0.0166
119,1,119,284.8009,1.6004,animal,1,1,1,0.3487,NR,0,999.0000
120,1,120,286.4015,1.5996,animal,0,0,1,0.5498,NR,0,999.0000
121,1,121,288.0166,9.9843,rest,0,NR,1,999.0000,NR,1,0.0000
122,1,122,298.0012,1.5995,tool,0,NR,0,999.0000,NR,0,999.0000
123,1,123,299.6009,1.6005,tool,0,0,1,0.4329,NR,0,999.0000
124,1,124,301.2015,1.5997,tool,1,1,1,0.4172,NR,0,999.0000
125,1,125,302.8014,1.5995,tool,0,NR,0,999.0000,0,1,0.0171
126,1,126,304.4012,1.5996,tool,0,0,1,0.4271,NR,0,999.0000
127,1,127,306.0010,1.5993,tool,0,0,1,0.4460,NR,0,999.0000
128,1,128,307.6005,2.4196,tool,1,1,1,0.2944,NR,0,999.0000
129,1,129,310.0202,0.7809,tool,0,NR,0,999.0000,NR,0,999.0000
130,1,130,310.8013,1.6000,tool,0,NR,0,999.0000,NR,0,999.0000
131,1,131,312.4014,1.5991,tool,1,NR,0,999.0000,1,1,0.0475
132,1,132,314.0172,9.9829,rest,0,NR,1,999.0000,NR,1,0.0000
133,1,133,324.0003,1.5998,virtualtown,0,NR,0,999.0000,NR,0,999.0000
134,1,134,325.6003,1.6008,virtualtown,0,0,1,0.5074,NR,0,999.0000
135,1,135,327.2013,1.5989,virtualtown,0,0,1,0.4064,NR,0,999.0000
136,1,136,328.8005,1.6007,virtualtown,1,1,1,0.4528,NR,0,999.0000
137,1,137,330.4014,1.6000,virtualtown,0,0,1,0.4768,NR,0,999.0000
138,1,138,332.0016,1.5989,virtualtown,1,1,1,0.5613,NR,0,999.0000
139,1,139,333.6007,1.6003,virtualtown,0,0,1,0.4884,NR,0,999.0000
140,1,140,335.2012,1.5998,virtualtown,0,NR,0,999.0000,0,1,0.0494
141,1,141,336.8012,1.5992,virtualtown,1,NR,0,999.0000,NR,0,999.0000
142,1,142,338.4007,1.6000,virtualtown,0,0,1,0.5723,NR,0,999.0000
143,1,143,340.0177,9.9824,rest,0,NR,1,999.0000,NR,1,0.0000
144,1,144,350.0003,1.6000,fruitveg,0,NR,0,999.0000,NR,0,999.0000
145,1,145,351.6004,1.5996,fruitveg,0,0,1,0.4938,NR,0,999.0000
146,1,146,353.2003,1.6002,fruitveg,1,1,1,0.4520,NR,0,999.0000
147,1,147,354.8007,1.6002,fruitveg,0,0,1,0.4048,NR,0,999.0000
148,1,148,356.4010,1.5993,fruitveg,1,1,1,0.4815,NR,0,999.0000
149,1,149,358.0005,1.5996,fruitveg,0,0,1,0.4265,NR,0,999.0000
150,1,150,359.6002,1.6000,fruitveg,1,1,1,0.4942,NR,0,999.0000
151,1,151,361.2005,1.5998,fruitveg,0,0,1,0.3940,NR,0,999.0000
152,1,152,362.8004,1.6002,fruitveg,0,1,0,0.5516,0,1,0.4818
153,1,153,364.4008,1.5993,fruitveg,0,0,1,0.4330,NR,0,999.0000
154,1,154,366.0183,9.9822,rest,0,NR,1,999.0000,NR,1,0.0000
155,1,155,376.0007,1.6002,virtualtown,0,NR,0,999.0000,NR,0,999.0000
156,1,156,377.6010,1.5997,virtualtown,0,0,1,0.4760,NR,0,999.0000
157,1,157,379.2009,1.5999,virtualtown,1,1,1,0.5341,NR,0,999.0000
158,1,158,380.8009,1.5993,virtualtown,0,0,1,0.4900,NR,0,999.0000
159,1,159,382.4005,1.6004,virtualtown,0,0,1,0.5652,NR,0,999.0000
160,1,160,384.0010,1.5992,virtualtown,0,0,1,0.5591,NR,0,999.0000
161,1,161,385.6005,1.6006,virtualtown,1,NR,0,999.0000,1,1,0.2414
162,1,162,387.2013,1.5994,virtualtown,0,0,1,0.4790,NR,0,999.0000
163,1,163,388.8009,1.5994,virtualtown,0,NR,0,999.0000,0,1,0.0491
164,1,164,390.4005,1.6005,virtualtown,1,NR,0,999.0000,1,1,0.1402
165,1,165,392.0189,9.9812,rest,0,1,1,0.3299,NR,1,0.0000
166,1,166,402.0004,1.6009,animal,0,NR,0,999.0000,NR,0,999.0000
167,1,167,403.6015,1.5993,animal,0,0,1,0.4608,NR,0,999.0000
168,1,168,405.2010,1.6005,animal,0,NR,0,999.0000,0,1,0.0240
169,1,169,406.8017,1.5997,animal,1,1,1,0.5202,NR,0,999.0000
170,1,170,408.4017,1.5997,animal,0,0,1,0.4168,NR,0,999.0000
171,1,171,410.0015,1.5991,animal,1,1,1,0.4830,NR,0,999.0000
172,1,172,411.6009,1.6005,animal,0,0,1,0.4635,NR,0,999.0000
173,1,173,413.2016,1.5986,animal,0,0,1,0.4542,NR,0,999.0000
174,1,174,414.8004,1.6010,animal,1,1,1,0.5327,NR,0,999.0000
175,1,175,416.4016,1.5986,animal,0,0,1,0.4394,NR,0,999.0000
176,1,176,418.0026,9.9986,rest,0,NR,1,999.0000,NR,1,0.0000
177,1,177,428.0013,1.5997,face,0,NR,0,999.0000,NR,0,999.0000
178,1,178,429.6013,1.5994,face,0,NR,0,999.0000,0,1,0.0156
179,1,179,431.2009,1.5992,face,1,1,1,0.3842,NR,0,999.0000
180,1,180,432.8003,1.5999,face,0,0,1,0.4009,NR,0,999.0000
181,1,181,434.4004,1.6008,face,0,0,1,0.3748,NR,0,999.0000
182,1,182,436.0014,1.5990,face,1,1,1,0.4594,NR,0,999.0000
183,1,183,437.6006,1.5997,face,0,0,1,0.4282,NR,0,999.0000
184,1,184,439.2005,1.6001,face,0,0,1,0.4105,NR,0,999.0000
185,1,185,440.8007,1.5999,face,0,0,1,0.4113,NR,0,999.0000
186,1,186,442.4008,1.5995,face,1,1,1,0.3106,NR,0,999.0000
187,1,187,444.0032,9.9987,rest,0,NR,1,999.0000,NR,1,0.0000
188,1,188,454.0021,1.5991,face,0,NR,0,999.0000,NR,0,999.0000
189,1,189,455.6014,1.5991,face,0,0,1,0.5362,NR,0,999.0000
190,1,190,457.2007,1.6003,face,0,0,1,0.4177,NR,0,999.0000
191,1,191,458.8012,1.5994,face,0,0,1,0.4374,NR,0,999.0000
192,1,192,460.4008,1.6006,face,1,1,1,0.5894,NR,0,999.0000
193,1,193,462.0016,1.5987,face,0,0,1,0.4682,NR,0,999.0000
194,1,194,463.6005,1.6009,face,0,0,1,0.4010,NR,0,999.0000
195,1,195,465.2016,1.5988,face,1,1,1,0.5212,NR,0,999.0000
196,1,196,466.8006,1.5997,face,0,0,1,0.3727,NR,0,999.0000
197,1,197,468.4005,1.6005,face,1,NR,0,999.0000,1,1,0.0074
198,1,198,470.0041,9.9970,rest,0,NR,1,999.0000,NR,1,0.0000
199,1,199,480.0013,1.5996,animal,0,NR,0,999.0000,NR,0,999.0000
200,1,200,481.6011,1.5995,animal,0,NR,0,999.0000,0,1,0.0409
201,1,201,483.2008,1.5994,animal,0,0,1,0.3583,NR,0,999.0000
202,1,202,484.8003,1.6007,animal,1,1,1,0.4874,NR,0,999.0000
203,1,203,486.4013,1.5999,animal,0,0,1,0.3900,NR,0,999.0000
204,1,204,488.0014,1.5998,animal,1,1,1,0.5011,NR,0,999.0000
205,1,205,489.6013,1.5997,animal,0,0,1,0.3830,NR,0,999.0000
206,1,206,491.2012,1.5993,animal,1,1,1,0.3616,NR,0,999.0000
207,1,207,492.8007,1.6003,animal,0,0,1,0.3229,NR,0,999.0000
208,1,208,494.4012,1.5989,animal,0,0,1,0.4359,NR,0,999.0000
209,1,209,496.0047,9.9966,rest,0,NR,1,999.0000,NR,1,0.0000
210,1,210,506.0016,1.5986,fruitveg,0,NR,0,999.0000,NR,0,999.0000
211,1,211,507.6004,1.6009,fruitveg,0,NR,0,999.0000,0,1,0.5976
212,1,212,509.2014,1.5998,fruitveg,0,NR,0,999.0000,0,1,0.1450
213,1,213,510.8014,1.5990,fruitveg,1,1,1,0.4867,NR,0,999.0000
214,1,214,512.4005,1.6000,fruitveg,0,0,1,0.3588,NR,0,999.0000
215,1,215,514.0007,1.5994,fruitveg,1,1,1,0.4990,NR,0,999.0000
216,1,216,515.6003,1.6004,fruitveg,0,0,1,0.3585,NR,0,999.0000
217,1,217,517.2009,1.6000,fruitveg,0,0,1,0.3911,NR,0,999.0000
218,1,218,518.8011,1.6003,fruitveg,0,0,1,0.3709,NR,0,999.0000
219,1,219,520.4016,1.5989,fruitveg,1,1,1,0.5180,NR,0,999.0000
220,1,220,522.0053,9.9967,rest,0,NR,1,999.0000,NR,1,0.0000
221,2,1,12.0026,1.5984,face,0,NR,0,999.0000,NR,0,999.0000
222,2,2,13.6012,1.6000,face,0,0,1,0.4653,NR,0,999.0000
223,2,3,15.2014,1.5989,face,0,0,1,0.3344,NR,0,999.0000
224,2,4,16.8005,1.6004,face,1,1,1,0.4353,NR,0,999.0000
225,2,5,18.4011,1.5992,face,0,0,1,0.3625,NR,0,999.0000
226,2,6,20.0005,1.5999,face,0,0,1,0.3872,NR,0,999.0000
227,2,7,21.6006,1.6000,face,1,1,1,0.4385,NR,0,999.0000
228,2,8,23.2008,1.6004,face,0,0,1,0.3656,NR,0,999.0000
229,2,9,24.8013,1.5999,face,0,0,1,0.3078,NR,0,999.0000
230,2,10,26.4014,1.5998,face,1,1,1,0.4650,NR,0,999.0000
231,2,11,28.0082,9.9921,rest,0,NR,1,999.0000,NR,1,0.0000
232,2,12,38.0006,1.6006,animal,0,NR,0,999.0000,NR,0,999.0000
233,2,13,39.6013,1.5992,animal,0,0,1,0.4093,NR,0,999.0000
234,2,14,41.2007,1.5997,animal,1,1,1,0.4456,NR,0,999.0000
235,2,15,42.8006,1.6007,animal,0,0,1,0.3689,NR,0,999.0000
236,2,16,44.4014,1.5998,animal,1,1,1,0.5178,NR,0,999.0000
237,2,17,46.0014,1.5994,animal,0,0,1,0.4479,NR,0,999.0000
238,2,18,47.6010,1.5991,animal,0,0,1,0.3745,NR,0,999.0000
239,2,19,49.2004,1.5999,animal,0,1,0,0.4407,0,1,0.1205
240,2,20,50.8005,1.5997,animal,0,0,1,0.5270,NR,0,999.0000
241,2,21,52.4004,1.5998,animal,1,1,1,0.5168,NR,0,999.0000
242,2,22,54.0087,9.9914,rest,0,NR,1,999.0000,NR,1,0.0000
243,2,23,64.0004,1.6005,virtualtown,0,NR,0,999.0000,NR,0,999.0000
244,2,24,65.6011,1.6000,virtualtown,0,0,1,0.4139,NR,0,999.0000
245,2,25,67.2013,1.5997,virtualtown,0,0,1,0.4155,NR,0,999.0000
246,2,26,68.8012,1.5998,virtualtown,1,0,0,0.5111,NR,0,999.0000
247,2,27,70.4013,1.5988,virtualtown,0,0,1,0.4512,NR,0,999.0000
248,2,28,72.0003,1.6009,virtualtown,0,0,1,0.4682,NR,0,999.0000
249,2,29,73.6014,1.5994,virtualtown,1,1,1,0.3472,NR,0,999.0000
250,2,30,75.2009,1.5997,virtualtown,0,0,1,0.4205,NR,0,999.0000
251,2,31,76.8008,1.6004,virtualtown,1,NR,0,999.0000,NR,0,999.0000
252,2,32,78.4014,1.5989,virtualtown,0,1,0,0.0227,0,1,0.0464
253,2,33,80.0093,9.9914,rest,0,NR,1,999.0000,NR,1,0.0000
254,2,34,90.0009,1.5999,animal,0,NR,0,999.0000,NR,0,999.0000
255,2,35,91.6010,1.5995,animal,0,0,1,0.4440,NR,0,999.0000
256,2,36,93.2007,1.5999,animal,0,0,1,0.3268,NR,0,999.0000
257,2,37,94.8008,1.5996,animal,1,0,0,0.3030,1,1,0.0840
258,2,38,96.4006,1.5995,animal,0,0,1,0.4707,NR,0,999.0000
259,2,39,98.0003,1.6009,animal,0,0,1,0.3908,NR,0,999.0000
260,2,40,99.6014,1.5995,animal,1,NR,0,999.0000,1,1,0.1312
261,2,41,101.2011,1.5991,animal,0,0,1,0.3935,NR,0,999.0000
262,2,42,102.8004,1.6008,animal,0,0,1,0.4294,NR,0,999.0000
263,2,43,104.4014,1.5993,animal,1,1,1,0.3868,NR,0,999.0000
264,2,44,106.0100,9.9906,rest,0,NR,1,999.0000,NR,1,0.0000
265,2,45,116.0007,1.5994,virtualtown,0,NR,0,999.0000,NR,0,999.0000
266,2,46,117.6003,1.5998,virtualtown,0,0,1,0.5736,NR,0,999.0000
267,2,47,119.2003,1.6010,virtualtown,0,0,1,0.4940,NR,0,999.0000
268,2,48,120.8015,1.5997,virtualtown,1,1,1,0.5143,NR,0,999.0000
269,2,49,122.4014,1.5993,virtualtown,0,0,1,0.4578,NR,0,999.0000
270,2,50,124.0009,1.6004,virtualtown,0,0,1,0.5793,NR,0,999.0000
271,2,51,125.6015,1.5995,virtualtown,1,1,1,0.4157,NR,0,999.0000
272,2,52,127.2012,1.6000,virtualtown,0,0,1,0.4028,NR,0,999.0000
273,2,53,128.8013,1.5993,virtualtown,1,NR,0,999.0000,1,1,0.0536
274,2,54,130.4008,1.5997,virtualtown,0,0,1,0.5828,NR,0,999.0000
275,2,55,132.0105,9.9896,rest,0,NR,1,999.0000,NR,1,0.0000
276,2,56,142.0003,1.6003,animal,0,NR,0,999.0000,NR,0,999.0000
277,2,57,143.6008,1.6005,animal,0,0,1,0.3868,NR,0,999.0000
278,2,58,145.2015,1.5996,animal,0,0,1,0.3706,NR,0,999.0000
279,2,59,146.8012,1.5992,animal,1,1,1,0.4785,NR,0,999.0000
280,2,60,148.4006,1.5996,animal,0,0,1,0.3553,NR,0,999.0000
281,2,61,150.0003,1.6005,animal,1,0,0,0.3205,1,1,0.1237
282,2,62,151.6010,1.6000,animal,0,0,1,0.3978,NR,0,999.0000
283,2,63,153.2012,1.6001,animal,0,0,1,0.3696,NR,0,999.0000
284,2,64,154.8015,1.5987,animal,0,0,1,0.4193,NR,0,999.0000
285,2,65,156.4003,1.6007,animal,1,1,1,0.5086,NR,0,999.0000
286,2,66,158.0111,9.9900,rest,0,NR,1,999.0000,NR,1,0.0000
287,2,67,168.0014,1.5987,face,0,NR,0,999.0000,NR,0,999.0000
288,2,68,169.6003,1.6009,face,0,0,1,0.4417,NR,0,999.0000
289,2,69,171.2013,1.5997,face,0,0,1,0.3741,NR,0,999.0000
290,2,70,172.8012,1.6000,face,1,1,1,0.4533,NR,0,999.0000
291,2,71,174.4014,1.5988,face,0,0,1,0.3671,NR,0,999.0000
292,2,72,176.0004,1.6007,face,0,0,1,0.4009,NR,0,999.0000
293,2,73,177.6013,1.5989,face,1,1,1,0.5804,NR,0,999.0000
294,2,74,179.2004,1.6001,face,0,0,1,0.4640,NR,0,999.0000
295,2,75,180.8006,1.6004,face,0,0,1,0.5367,NR,0,999.0000
296,2,76,182.4012,1.5998,face,1,NR,0,999.0000,1,1,0.0777
297,2,77,184.0117,9.9886,rest,0,NR,1,999.0000,NR,1,0.0000
298,2,78,194.0005,1.6004,fruitveg,0,NR,0,999.0000,NR,0,999.0000
299,2,79,195.6011,1.5990,fruitveg,0,0,1,0.4152,NR,0,999.0000
300,2,80,197.2003,1.6004,fruitveg,1,1,1,0.4787,NR,0,999.0000
301,2,81,198.8009,1.5999,fruitveg,0,0,1,0.3526,NR,0,999.0000
302,2,82,200.4010,1.6002,fruitveg,0,0,1,0.3484,NR,0,999.0000
303,2,83,202.0014,1.5992,fruitveg,1,1,1,0.4482,NR,0,999.0000
304,2,84,203.6008,1.6001,fruitveg,0,0,1,0.3944,NR,0,999.0000
305,2,85,205.2011,1.5993,fruitveg,0,0,1,0.3376,NR,0,999.0000
306,2,86,206.8006,1.6001,fruitveg,0,0,1,0.3104,NR,0,999.0000
307,2,87,208.4008,1.6000,fruitveg,1,1,1,0.4550,NR,0,999.0000
308,2,88,210.0124,9.9888,rest,0,NR,1,999.0000,NR,1,0.0000
309,2,89,220.0014,1.5994,virtualtown,0,NR,0,999.0000,NR,0,999.0000
310,2,90,221.6009,1.6003,virtualtown,0,0,1,0.4301,NR,0,999.0000
311,2,91,223.2014,1.5992,virtualtown,0,0,1,0.4550,NR,0,999.0000
312,2,92,224.8007,1.6006,virtualtown,1,0,0,0.4599,1,1,0.3300
313,2,93,226.4015,1.5992,virtualtown,0,0,1,0.4155,NR,0,999.0000
314,2,94,228.0009,1.5996,virtualtown,0,0,1,0.4648,NR,0,999.0000
315,2,95,229.6007,1.6003,virtualtown,0,0,1,0.4844,NR,0,999.0000
316,2,96,231.2011,1.6002,virtualtown,1,1,1,0.3343,NR,0,999.0000
317,2,97,232.8015,1.5999,virtualtown,0,NR,0,999.0000,0,1,0.0584
318,2,98,234.4016,1.5995,virtualtown,1,0,0,0.4753,1,1,0.0954
319,2,99,236.0130,9.9883,rest,0,NR,1,999.0000,NR,1,0.0000
320,2,100,246.0015,1.5988,fruitveg,0,NR,0,999.0000,NR,0,999.0000
321,2,101,247.6004,1.6004,fruitveg,0,0,1,0.4034,NR,0,999.0000
322,2,102,249.2010,1.6002,fruitveg,1,1,1,0.4898,NR,0,999.0000
323,2,103,250.8014,1.5993,fruitveg,0,NR,0,999.0000,0,1,0.1520
324,2,104,252.4009,1.6001,fruitveg,0,1,0,0.4490,0,1,0.3368
325,2,105,254.0012,1.5998,fruitveg,0,0,1,0.4337,NR,0,999.0000
326,2,106,255.6013,1.5992,fruitveg,0,0,1,0.5289,NR,0,999.0000
327,2,107,257.2007,1.5997,fruitveg,1,1,1,0.3256,NR,0,999.0000
328,2,108,258.8006,1.6002,fruitveg,0,0,1,0.3891,NR,0,999.0000
329,2,109,260.4009,1.5997,fruitveg,1,1,1,0.3488,NR,0,999.0000
330,2,110,262.0136,9.9867,rest,0,NR,1,999.0000,NR,1,0.0000
331,2,111,272.0005,1.6009,face,0,NR,0,999.0000,NR,0,999.0000
332,2,112,273.6015,1.5987,face,0,0,1,0.5373,NR,0,999.0000
333,2,113,275.2005,1.6000,face,1,1,1,0.3997,NR,0,999.0000
334,2,114,276.8007,1.5998,face,0,0,1,0.3657,NR,0,999.0000
335,2,115,278.4007,1.6006,face,0,0,1,0.3860,NR,0,999.0000
336,2,116,280.0014,1.5991,face,1,1,1,0.4797,NR,0,999.0000
337,2,117,281.6007,1.5995,face,0,0,1,0.4874,NR,0,999.0000
338,2,118,283.2004,1.6004,face,0,NR,0,999.0000,0,1,0.0394
339,2,119,284.8010,1.5998,face,0,NR,0,999.0000,NR,0,999.0000
340,2,120,286.4010,1.5997,face,1,1,1,0.3118,NR,0,999.0000
341,2,121,288.0142,9.9860,rest,0,NR,1,999.0000,NR,1,0.0000
342,2,122,298.0004,1.6002,tool,0,NR,0,999.0000,NR,0,999.0000
343,2,123,299.6008,1.6005,tool,0,0,1,0.3808,NR,0,999.0000
344,2,124,301.2015,1.5994,tool,1,1,1,0.4429,NR,0,999.0000
345,2,125,302.8010,1.6000,tool,0,0,1,0.3881,NR,0,999.0000
346,2,126,304.4012,1.5999,tool,1,0,0,0.5657,NR,0,999.0000
347,2,127,306.0013,1.5992,tool,0,0,1,0.4008,NR,0,999.0000
348,2,128,307.6007,1.5996,tool,1,1,1,0.4246,NR,0,999.0000
349,2,129,309.2006,1.6002,tool,0,0,1,0.3356,NR,0,999.0000
350,2,130,310.8010,1.5999,tool,0,0,1,0.5416,NR,0,999.0000
351,2,131,312.4011,1.6003,tool,0,0,1,0.3786,NR,0,999.0000
352,2,132,314.0148,9.9858,rest,0,NR,1,999.0000,NR,1,0.0000
353,2,133,324.0009,1.5999,tool,0,NR,0,999.0000,NR,0,999.0000
354,2,134,325.6010,1.6000,tool,0,0,1,0.4334,NR,0,999.0000
355,2,135,327.2011,1.5992,tool,0,0,1,0.4174,NR,0,999.0000
356,2,136,328.8006,1.6001,tool,0,0,1,0.5252,NR,0,999.0000
357,2,137,330.4009,1.5996,tool,0,0,1,0.4140,NR,0,999.0000
358,2,138,332.0007,1.6003,tool,1,1,1,0.3004,NR,0,999.0000
359,2,139,333.6012,1.5995,tool,0,0,1,0.4251,NR,0,999.0000
360,2,140,335.2008,1.6004,tool,1,1,1,0.5110,NR,0,999.0000
361,2,141,336.8014,1.5997,tool,0,0,1,0.4282,NR,0,999.0000
362,2,142,338.4014,1.5993,tool,1,NR,0,999.0000,1,1,0.0637
363,2,143,340.0154,9.9853,rest,0,NR,1,999.0000,NR,1,0.0000
364,2,144,350.0010,1.6000,fruitveg,0,NR,0,999.0000,NR,0,999.0000
365,2,145,351.6012,1.6002,fruitveg,0,0,1,0.4967,NR,0,999.0000
366,2,146,353.2016,1.5989,fruitveg,0,0,1,0.4448,NR,0,999.0000
367,2,147,354.8007,1.5994,fruitveg,0,0,1,0.3382,NR,0,999.0000
368,2,148,356.4003,1.6011,fruitveg,1,0,0,0.5475,NR,0,999.0000
369,2,149,358.0016,1.5984,fruitveg,0,0,1,0.3497,NR,0,999.0000
370,2,150,359.6002,1.6000,fruitveg,1,1,1,0.4509,NR,0,999.0000
371,2,151,361.2004,1.6005,fruitveg,0,0,1,0.4105,NR,0,999.0000
372,2,152,362.8012,1.5996,fruitveg,0,0,1,0.3948,NR,0,999.0000
373,2,153,364.4010,1.5994,fruitveg,1,1,1,0.4414,NR,0,999.0000
374,2,154,366.0161,9.9846,rest,0,NR,1,999.0000,NR,1,0.0000
375,2,155,376.0009,1.5993,tool,0,NR,0,999.0000,NR,0,999.0000
376,2,156,377.6005,1.6001,tool,0,0,1,0.4778,NR,0,999.0000
377,2,157,379.2007,1.6002,tool,0,0,1,0.3334,NR,0,999.0000
378,2,158,380.8011,1.5991,tool,1,1,1,0.3281,NR,0,999.0000
379,2,159,382.4004,1.6009,tool,0,0,1,0.3531,NR,0,999.0000
380,2,160,384.0014,1.5989,tool,0,0,1,0.3453,NR,0,999.0000
381,2,161,385.6004,1.5998,tool,1,0,0,0.4902,NR,0,999.0000
382,2,162,387.2005,1.6008,tool,0,0,1,0.3254,NR,0,999.0000
383,2,163,388.8015,1.5995,tool,0,0,1,0.3433,NR,0,999.0000
384,2,164,390.4011,1.6000,tool,1,1,1,0.4383,NR,0,999.0000
385,2,165,392.0167,9.9839,rest,0,NR,1,999.0000,NR,1,0.0000
386,2,166,402.0008,1.6005,virtualtown,0,NR,0,999.0000,NR,0,999.0000
387,2,167,403.6015,1.5992,virtualtown,0,0,1,0.4854,NR,0,999.0000
388,2,168,405.2009,1.5994,virtualtown,0,0,1,0.4863,NR,0,999.0000
389,2,169,406.8004,1.6010,virtualtown,0,0,1,0.5143,NR,0,999.0000
390,2,170,408.4016,1.5992,virtualtown,0,0,1,0.4300,NR,0,999.0000
391,2,171,410.0011,1.5994,virtualtown,1,1,1,0.4479,NR,0,999.0000
392,2,172,411.6007,1.6006,virtualtown,0,NR,0,999.0000,0,1,0.0750
393,2,173,413.2015,1.5990,virtualtown,1,NR,0,999.0000,1,1,0.0244
394,2,174,414.8007,1.6003,virtualtown,0,0,1,0.5734,NR,0,999.0000
395,2,175,416.4012,1.5998,virtualtown,1,NR,0,999.0000,1,1,0.1222
396,2,176,418.0173,9.9838,rest,0,NR,1,999.0000,NR,1,0.0000
397,2,177,428.0014,1.5995,tool,0,NR,0,999.0000,NR,0,999.0000
398,2,178,429.6011,1.5996,tool,0,0,1,0.4020,NR,0,999.0000
399,2,179,431.2008,1.6001,tool,1,1,1,0.4344,NR,0,999.0000
400,2,180,432.8011,1.5996,tool,0,0,1,0.3588,NR,0,999.0000
401,2,181,434.4009,1.6005,tool,1,1,1,0.4460,NR,0,999.0000
402,2,182,436.0016,1.5989,tool,0,0,1,0.3832,NR,0,999.0000
403,2,183,437.6007,1.6007,tool,0,0,1,0.3544,NR,0,999.0000
404,2,184,439.2015,1.5988,tool,0,1,0,0.3888,NR,0,999.0000
405,2,185,440.8005,1.5997,tool,1,1,1,0.5024,NR,0,999.0000
406,2,186,442.4003,1.6005,tool,0,0,1,0.3794,NR,0,999.0000
407,2,187,444.0180,9.9826,rest,0,NR,1,999.0000,NR,1,0.0000
408,2,188,454.0007,1.5998,fruitveg,0,NR,0,999.0000,NR,0,999.0000
409,2,189,455.6008,1.6000,fruitveg,0,0,1,0.4643,NR,0,999.0000
410,2,190,457.2010,1.5993,fruitveg,1,1,1,0.4188,NR,0,999.0000
411,2,191,458.8005,1.6001,fruitveg,0,0,1,0.3645,NR,0,999.0000
412,2,192,460.4008,1.5996,fruitveg,0,0,1,0.4083,NR,0,999.0000
413,2,193,462.0006,1.5997,fruitveg,0,0,1,0.3630,NR,0,999.0000
414,2,194,463.6004,1.6002,fruitveg,0,0,1,0.4279,NR,0,999.0000
415,2,195,465.2008,1.5994,fruitveg,1,1,1,0.2728,NR,0,999.0000
416,2,196,466.8004,1.5999,fruitveg,0,0,1,0.3109,NR,0,999.0000
417,2,197,468.4005,1.5999,fruitveg,1,1,1,0.3149,NR,0,999.0000
418,2,198,470.0185,9.9822,rest,0,NR,1,999.0000,NR,1,0.0000
419,2,199,480.0010,1.6004,animal,0,NR,0,999.0000,NR,0,999.0000
420,2,200,481.6015,1.5988,animal,0,0,1,0.3696,NR,0,999.0000
421,2,201,483.2005,1.6000,animal,0,0,1,0.4236,NR,0,999.0000
422,2,202,484.8007,1.5999,animal,0,0,1,0.3423,NR,0,999.0000
423,2,203,486.4008,1.5994,animal,1,1,1,0.3665,NR,0,999.0000
424,2,204,488.0004,1.6003,animal,0,0,1,0.3672,NR,0,999.0000
425,2,205,489.6008,1.5997,animal,0,0,1,0.3796,NR,0,999.0000
426,2,206,491.2007,1.6004,animal,1,0,0,0.4980,1,1,0.1058
427,2,207,492.8013,1.5992,animal,0,0,1,0.3073,NR,0,999.0000
428,2,208,494.4006,1.5998,animal,1,1,1,0.4315,NR,0,999.0000
429,2,209,496.0192,9.9814,rest,0,NR,1,999.0000,NR,1,0.0000
430,2,210,506.0008,1.6004,face,0,NR,0,999.0000,NR,0,999.0000
431,2,211,507.6014,1.5989,face,0,0,1,0.3569,NR,0,999.0000
432,2,212,509.2005,1.5996,face,0,0,1,0.4046,NR,0,999.0000
433,2,213,510.8002,1.6010,face,1,1,1,0.4630,NR,0,999.0000
434,2,214,512.4014,1.5998,face,0,0,1,0.4254,NR,0,999.0000
435,2,215,514.0014,1.5988,face,0,0,1,0.5246,NR,0,999.0000
436,2,216,515.6004,1.6005,face,1,1,1,0.4085,NR,0,999.0000
437,2,217,517.2011,1.5990,face,0,0,1,0.4608,NR,0,999.0000
438,2,218,518.8003,1.6008,face,0,0,1,0.4126,NR,0,999.0000
439,2,219,520.4013,1.6001,face,1,0,0,0.4826,NR,0,999.0000
440,2,220,522.0197,9.9814,rest,0,NR,1,999.0000,NR,1,0.0000
