index,run,trial,onset,duration,town,pic,itemNum,resp,respRT
1,1,1,1.0014,122.3291,Town2,env2.jpg,1,Paul McCartney??,97.6468
2,1,1,1.0014,122.3291,Town2,env2.jpg,2,?,22.9983
3,1,1,1.0014,122.3291,Town2,env2.jpg,3,?,1.6800
4,1,2,123.3707,24.0056,Town12,env12.jpg,1,cow,18.5012
5,1,2,123.3707,24.0056,Town12,env12.jpg,2,ruler,2.6463
6,1,2,123.3707,24.0056,Town12,env12.jpg,3,katy perry,2.8561
7,1,3,147.4147,8.4575,Town7,env7.jpg,1,?,5.2182
8,1,3,147.4147,8.4575,Town7,env7.jpg,2,?,1.8864
9,1,3,147.4147,8.4575,Town7,env7.jpg,3,?,1.3510
10,1,4,155.9114,4.4900,Town1,env1.jpg,1,?,2.0657
11,1,4,155.9114,4.4900,Town1,env1.jpg,2,?,1.0313
12,1,4,155.9114,4.4900,Town1,env1.jpg,3,?,1.3912
13,1,5,160.4399,20.1314,Town10,env10.jpg,1,?,14.4118
14,1,5,160.4399,20.1314,Town10,env10.jpg,2,zuckerberg,2.7748
15,1,5,160.4399,20.1314,Town10,env10.jpg,3,?,2.9431
16,1,6,180.6103,15.3714,Town3,env3.jpg,1,?,11.6354
17,1,6,180.6103,15.3714,Town3,env3.jpg,2,johnny depp,3.0306
18,1,6,180.6103,15.3714,Town3,env3.jpg,3,?,0.7037
19,1,7,196.0208,29.3393,Town6,env6.jpg,1,?,7.0366
20,1,7,196.0208,29.3393,Town6,env6.jpg,2,Natalie Portman,20.3343
21,1,7,196.0208,29.3393,Town6,env6.jpg,3,?,1.9667
22,1,8,225.3992,9.9765,Town5,env5.jpg,1,?,5.2638
23,1,8,225.3992,9.9765,Town5,env5.jpg,2,George Clooney,3.9844
24,1,8,225.3992,9.9765,Town5,env5.jpg,3,?,0.7265
25,1,9,235.4157,9.9202,Town4,env4.jpg,1,?,4.7911
26,1,9,235.4157,9.9202,Town4,env4.jpg,2,Taylor Swift,4.4963
27,1,9,235.4157,9.9202,Town4,env4.jpg,3,?,0.6311
28,1,10,245.3748,29.0726,Town11,env11.jpg,1,?,24.1603
29,1,10,245.3748,29.0726,Town11,env11.jpg,2,Zooey Deschanel,4.0792
30,1,10,245.3748,29.0726,Town11,env11.jpg,3,?,0.8311
31,1,11,274.4867,13.7894,Town9,env9.jpg,1,?,8.5724
32,1,11,274.4867,13.7894,Town9,env9.jpg,2,Jim Parsons,4.3841
33,1,11,274.4867,13.7894,Town9,env9.jpg,3,?,0.8311
34,1,12,288.3148,12.4659,Town8,env8.jpg,1,?,8.9932
35,1,12,288.3148,12.4659,Town8,env8.jpg,2,?,2.5027
36,1,12,288.3148,12.4659,Town8,env8.jpg,3,?,0.9682
37,2,1,1.0007,11.1334,Town5,env5.jpg,1,?,9.2441
38,2,1,1.0007,11.1334,Town5,env5.jpg,2,?,1.1030
39,2,1,1.0007,11.1334,Town5,env5.jpg,3,?,0.7823
40,2,2,12.1592,4.0309,Town7,env7.jpg,1,?,2.5344
41,2,2,12.1592,4.0309,Town7,env7.jpg,2,?,0.7438
42,2,2,12.1592,4.0309,Town7,env7.jpg,3,?,0.7510
43,2,3,16.2151,8.5510,Town8,env8.jpg,1,beyonce,6.5583
44,2,3,16.2151,8.5510,Town8,env8.jpg,2,?,1.0069
45,2,3,16.2151,8.5510,Town8,env8.jpg,3,?,0.9838
46,2,4,24.7914,15.1073,Town2,env2.jpg,1,George Clooney,10.1143
47,2,4,24.7914,15.1073,Town2,env2.jpg,2,?,4.0952
48,2,4,24.7914,15.1073,Town2,env2.jpg,3,?,0.8958
49,2,5,39.9238,3.3896,Town1,env1.jpg,1,?,1.8380
50,2,5,39.9238,3.3896,Town1,env1.jpg,2,?,0.7751
51,2,5,39.9238,3.3896,Town1,env1.jpg,3,?,0.7745
52,2,6,43.3385,11.4705,Town3,env3.jpg,1,elephant,7.5916
53,2,6,43.3385,11.4705,Town3,env3.jpg,2,?,0.8147
54,2,6,43.3385,11.4705,Town3,env3.jpg,3,johnny depp,3.0624
55,2,7,54.8342,12.1099,Town11,env11.jpg,1,grape,7.4530
56,2,7,54.8342,12.1099,Town11,env11.jpg,2,?,3.9854
57,2,7,54.8342,12.1099,Town11,env11.jpg,3,?,0.6698
58,2,8,66.9688,3.4965,Town6,env6.jpg,1,?,2.0548
59,2,8,66.9688,3.4965,Town6,env6.jpg,2,?,0.6884
60,2,8,66.9688,3.4965,Town6,env6.jpg,3,?,0.7514
61,2,9,70.4901,3.4313,Town12,env12.jpg,1,?,1.9418
62,2,9,70.4901,3.4313,Town12,env12.jpg,2,?,0.7360
63,2,9,70.4901,3.4313,Town12,env12.jpg,3,?,0.7516
64,2,10,73.9463,13.6544,Town10,env10.jpg,1,grape,6.8615
65,2,10,73.9463,13.6544,Town10,env10.jpg,2,duck,4.1357
66,2,10,73.9463,13.6544,Town10,env10.jpg,3,Katy Perry,2.6552
67,2,11,87.6261,9.5344,Town4,env4.jpg,1,?,4.2060
68,2,11,87.6261,9.5344,Town4,env4.jpg,2,?,1.4621
69,2,11,87.6261,9.5344,Town4,env4.jpg,3,Zooey Deschanel,3.8644
70,2,12,97.1853,4.6556,Town9,env9.jpg,1,?,3.2869
71,2,12,97.1853,4.6556,Town9,env9.jpg,2,?,0.6553
72,2,12,97.1853,4.6556,Town9,env9.jpg,3,?,0.7113
73,3,1,1.0022,16.0091,Town5,env5.jpg,1,?,13.8945
74,3,1,1.0022,16.0091,Town5,env5.jpg,2,?,1.3668
75,3,1,1.0022,16.0091,Town5,env5.jpg,3,?,0.7440
76,3,2,17.0416,7.0614,Town1,env1.jpg,1,?,5.5396
77,3,2,17.0416,7.0614,Town1,env1.jpg,2,?,0.8723
78,3,2,17.0416,7.0614,Town1,env1.jpg,3,?,0.6476
79,3,3,24.1326,13.6865,Town4,env4.jpg,1,George Clooney,10.4952
80,3,3,24.1326,13.6865,Town4,env4.jpg,2,?,2.4936
81,3,3,24.1326,13.6865,Town4,env4.jpg,3,?,0.6958
82,3,4,37.8490,18.0564,Town2,env2.jpg,1,Mark Zuckerberg,7.5218
83,3,4,37.8490,18.0564,Town2,env2.jpg,2,cucumber,7.4531
84,3,4,37.8490,18.0564,Town2,env2.jpg,3,kitten,3.0795
85,3,5,55.9355,4.3538,Town7,env7.jpg,1,?,3.0644
86,3,5,55.9355,4.3538,Town7,env7.jpg,2,?,0.6639
87,3,5,55.9355,4.3538,Town7,env7.jpg,3,?,0.6237
88,3,6,60.3191,4.8504,Town12,env12.jpg,1,?,3.5283
89,3,6,60.3191,4.8504,Town12,env12.jpg,2,?,0.6809
90,3,6,60.3191,4.8504,Town12,env12.jpg,3,?,0.6393
91,3,7,65.1995,4.4970,Town9,env9.jpg,1,?,3.0886
92,3,7,65.1995,4.4970,Town9,env9.jpg,2,?,0.6719
93,3,7,65.1995,4.4970,Town9,env9.jpg,3,?,0.7348
94,3,8,69.7269,21.9815,Town3,env3.jpg,1,Taylor Swift,17.2681
95,3,8,69.7269,21.9815,Town3,env3.jpg,2,saw,3.7845
96,3,8,69.7269,21.9815,Town3,env3.jpg,3,?,0.9271
97,3,9,91.7380,21.6436,Town8,env8.jpg,1,Beyonce,3.2809
98,3,9,91.7380,21.6436,Town8,env8.jpg,2,screwdriver,15.1377
99,3,9,91.7380,21.6436,Town8,env8.jpg,3,rubber duck,3.2233
100,3,10,113.4122,15.6697,Town10,env10.jpg,1,grape,9.4681
101,3,10,113.4122,15.6697,Town10,env10.jpg,2,screwdriver,3.5354
102,3,10,113.4122,15.6697,Town10,env10.jpg,3,Katy Perry,2.6643
103,3,11,129.1117,17.6443,Town11,env11.jpg,1,Johnny Depp,6.2594
104,3,11,129.1117,17.6443,Town11,env11.jpg,2,elephant,7.4249
105,3,11,129.1117,17.6443,Town11,env11.jpg,3,peanuts,3.9580
106,3,12,146.7861,10.8911,Town6,env6.jpg,1,Paul McCartney,9.5929
107,3,12,146.7861,10.8911,Town6,env6.jpg,2,?,0.7044
108,3,12,146.7861,10.8911,Town6,env6.jpg,3,?,0.5919
109,4,1,1.0010,13.3223,Town11,env11.jpg,1,Johnny Depp,8.2236
110,4,1,1.0010,13.3223,Town11,env11.jpg,2,elephant,3.3029
111,4,1,1.0010,13.3223,Town11,env11.jpg,3,carrots,1.7915
112,4,2,14.9691,16.0568,Town7,env7.jpg,1,Jim Parsons,11.8887
113,4,2,14.9691,16.0568,Town7,env7.jpg,2,screwdriver,3.3524
114,4,2,14.9691,16.0568,Town7,env7.jpg,3,?,0.8138
115,4,3,31.0517,7.4638,Town6,env6.jpg,1,?,6.1274
116,4,3,31.0517,7.4638,Town6,env6.jpg,2,?,0.7195
117,4,3,31.0517,7.4638,Town6,env6.jpg,3,?,0.6149
118,4,4,38.5405,11.7137,Town5,env5.jpg,1,?,9.9845
119,4,4,38.5405,11.7137,Town5,env5.jpg,2,?,0.6959
120,4,4,38.5405,11.7137,Town5,env5.jpg,3,?,1.0314
121,4,5,50.2795,12.1574,Town1,env1.jpg,1,George Clooney,10.1883
122,4,5,50.2795,12.1574,Town1,env1.jpg,2,?,0.9595
123,4,5,50.2795,12.1574,Town1,env1.jpg,3,?,1.0076
124,4,6,62.4620,26.6286,Town12,env12.jpg,1,Zooey Deschanel,15.5142
125,4,6,62.4620,26.6286,Town12,env12.jpg,2,?,9.9381
126,4,6,62.4620,26.6286,Town12,env12.jpg,3,?,1.1745
127,4,7,89.1155,8.5442,Town10,env10.jpg,1,grape,2.9916
128,4,7,89.1155,8.5442,Town10,env10.jpg,2,duck,1.9028
129,4,7,89.1155,8.5442,Town10,env10.jpg,3,Katy Perry,3.6478
130,4,8,97.6849,14.4650,Town4,env4.jpg,1,gator,9.3372
131,4,8,97.6849,14.4650,Town4,env4.jpg,2,saw,1.0311
132,4,8,97.6849,14.4650,Town4,env4.jpg,3,Natalie Portman,4.0949
133,4,9,112.1754,25.8459,Town3,env3.jpg,1,Emma Watson,15.3697
134,4,9,112.1754,25.8459,Town3,env3.jpg,2,screwdriver,9.6349
135,4,9,112.1754,25.8459,Town3,env3.jpg,3,?,0.8394
136,4,10,138.0469,12.0696,Town2,env2.jpg,1,Mark Zuckerberg,6.4455
137,4,10,138.0469,12.0696,Town2,env2.jpg,2,cucumber,2.2544
138,4,10,138.0469,12.0696,Town2,env2.jpg,3,kitten,3.3679
139,4,11,150.1413,16.0018,Town8,env8.jpg,1,Beyonce,4.0626
140,4,11,150.1413,16.0018,Town8,env8.jpg,2,lemons,1.9362
141,4,11,150.1413,16.0018,Town8,env8.jpg,3,rubber duck,10.0012
142,4,12,166.4531,11.1215,Town9,env9.jpg,1,?,3.8250
143,4,12,166.4531,11.1215,Town9,env9.jpg,2,Paul McCartney,6.3107
144,4,12,166.4531,11.1215,Town9,env9.jpg,3,?,0.9840
145,5,1,1.0009,39.7727,Town5,env5.jpg,1,zebra,34.8656
146,5,1,1.0009,39.7727,Town5,env5.jpg,2,cucumber,1.7756
147,5,1,1.0009,39.7727,Town5,env5.jpg,3,Zooey Deschanel,3.1273
148,5,2,40.7988,12.9118,Town11,env11.jpg,1,elephant,7.1681
149,5,2,40.7988,12.9118,Town11,env11.jpg,2,peanuts,2.2952
150,5,2,40.7988,12.9118,Town11,env11.jpg,3,Johnny Depp,3.4466
151,5,3,53.7362,10.4440,Town9,env9.jpg,1,?,5.8421
152,5,3,53.7362,10.4440,Town9,env9.jpg,2,Paul McCartney,3.8078
153,5,3,53.7362,10.4440,Town9,env9.jpg,3,?,0.7923
154,5,4,64.2063,13.1718,Town1,env1.jpg,1,George Clooney,9.6511
155,5,4,64.2063,13.1718,Town1,env1.jpg,2,Ice Cream,2.6700
156,5,4,64.2063,13.1718,Town1,env1.jpg,3,?,0.8488
157,5,5,77.4041,17.8239,Town7,env7.jpg,1,?,11.5114
158,5,5,77.4041,17.8239,Town7,env7.jpg,2,drill,1.9749
159,5,5,77.4041,17.8239,Town7,env7.jpg,3,Jim Parsons,4.3356
160,5,6,95.2535,6.9741,Town10,env10.jpg,1,grape,3.0448
161,5,6,95.2535,6.9741,Town10,env10.jpg,2,duck,1.1441
162,5,6,95.2535,6.9741,Town10,env10.jpg,3,Katy Perry,2.7836
163,5,7,102.2534,14.9788,Town4,env4.jpg,1,gator,7.7931
164,5,7,102.2534,14.9788,Town4,env4.jpg,2,saw,0.7281
165,5,7,102.2534,14.9788,Town4,env4.jpg,3,Natalie Portman,6.4556
166,5,8,117.2580,7.5579,Town8,env8.jpg,1,?,4.7252
167,5,8,117.2580,7.5579,Town8,env8.jpg,2,Beyonce,2.1747
168,5,8,117.2580,7.5579,Town8,env8.jpg,3,?,0.6561
169,5,9,124.8412,15.4879,Town2,env2.jpg,1,Mark Zuckerberg,12.1586
170,5,9,124.8412,15.4879,Town2,env2.jpg,2,cucumber,1.6637
171,5,9,124.8412,15.4879,Town2,env2.jpg,3,kitten,1.6638
172,5,10,140.3545,68.9234,Town6,env6.jpg,1,?,58.3148
173,5,10,140.3545,68.9234,Town6,env6.jpg,2,Benedict Cumberlatch,9.6553
174,5,10,140.3545,68.9234,Town6,env6.jpg,3,?,0.9516
175,5,11,209.3037,10.8159,Town3,env3.jpg,1,Emma Watson,7.9210
176,5,11,209.3037,10.8159,Town3,env3.jpg,2,bear,1.8627
177,5,11,209.3037,10.8159,Town3,env3.jpg,3,?,1.0301
178,5,12,220.1456,37.2958,Town12,env12.jpg,1,?,31.4230
179,5,12,220.1456,37.2958,Town12,env12.jpg,2,?,5.0951
180,5,12,220.1456,37.2958,Town12,env12.jpg,3,?,0.7757
