index,run,trial,onset,duration,town,pic,itemNum,resp,respRT
1,1,1,1.0013,56.0844,Town5,env5,1,stapler,38.1840
2,1,1,1.0013,56.0844,Town5,env5,2,zoey,15.3608
3,1,1,1.0013,56.0844,Town5,env5,3,?,2.5357
4,1,2,57.1326,8.9479,Town10,env10,1,?,7.6118
5,1,2,57.1326,8.9479,Town10,env10,2,?,0.7434
6,1,2,57.1326,8.9479,Town10,env10,3,?,0.5910
7,1,3,66.1284,9.7765,Town1,env1,1,emma,8.1920
8,1,3,66.1284,9.7765,Town1,env1,2,?,1.0557
9,1,3,66.1284,9.7765,Town1,env1,3,?,0.5268
10,1,4,75.9527,3.6335,Town9,env9,1,?,2.5615
11,1,4,75.9527,3.6335,Town9,env9,2,?,0.5181
12,1,4,75.9527,3.6335,Town9,env9,3,?,0.5518
13,1,5,79.6327,6.4559,Town11,env11,1,?,5.1690
14,1,5,79.6327,6.4559,Town11,env11,2,?,0.6138
15,1,5,79.6327,6.4559,Town11,env11,3,?,0.6714
16,1,6,86.1365,3.5703,Town6,env6,1,?,2.5201
17,1,6,86.1365,3.5703,Town6,env6,2,?,0.5367
18,1,6,86.1365,3.5703,Town6,env6,3,?,0.5118
19,1,7,89.7533,22.0124,Town12,env12,1,stapler,11.8575
20,1,7,89.7533,22.0124,Town12,env12,2,zoey,9.1866
21,1,7,89.7533,22.0124,Town12,env12,3,?,0.9665
22,1,8,111.8136,12.9810,Town2,env2,1,mark,8.3667
23,1,8,111.8136,12.9810,Town2,env2,2,?,4.0841
24,1,8,111.8136,12.9810,Town2,env2,3,?,0.5279
25,1,9,124.8420,3.1440,Town8,env8,1,?,2.0939
26,1,9,124.8420,3.1440,Town8,env8,2,?,0.4969
27,1,9,124.8420,3.1440,Town8,env8,3,?,0.5514
28,1,10,128.0327,3.7437,Town3,env3,1,?,2.6875
29,1,10,128.0327,3.7437,Town3,env3,2,?,0.4793
30,1,10,128.0327,3.7437,Town3,env3,3,?,0.5752
31,1,11,131.8250,4.0796,Town4,env4,1,?,2.9838
32,1,11,131.8250,4.0796,Town4,env4,2,?,0.5430
33,1,11,131.8250,4.0796,Town4,env4,3,?,0.5510
34,1,12,135.9513,2.2253,Town7,env7,1,?,1.1530
35,1,12,135.9513,2.2253,Town7,env7,2,?,0.4437
36,1,12,135.9513,2.2253,Town7,env7,3,?,0.6269
37,2,1,1.0011,9.1087,Town4,env4,1,?,7.8602
38,2,1,1.0011,9.1087,Town4,env4,2,?,0.6788
39,2,1,1.0011,9.1087,Town4,env4,3,?,0.5659
40,2,2,10.1572,8.0461,Town11,env11,1,?,7.1088
41,2,2,10.1572,8.0461,Town11,env11,2,?,0.4966
42,2,2,10.1572,8.0461,Town11,env11,3,?,0.4389
43,2,3,18.2500,10.8148,Town10,env10,1,pigeon,5.8387
44,2,3,18.2500,10.8148,Town10,env10,2,katy,3.1669
45,2,3,18.2500,10.8148,Town10,env10,3,?,1.8072
46,2,4,29.1113,6.6892,Town8,env8,1,?,5.0737
47,2,4,29.1113,6.6892,Town8,env8,2,?,0.6313
48,2,4,29.1113,6.6892,Town8,env8,3,?,0.9824
49,2,5,35.8473,14.8272,Town2,env2,1,mark,7.1786
50,2,5,35.8473,14.8272,Town2,env2,2,cucumber,4.7669
51,2,5,35.8473,14.8272,Town2,env2,3,scissors,2.8800
52,2,6,50.7213,4.9305,Town9,env9,1,?,4.0563
53,2,6,50.7213,4.9305,Town9,env9,2,?,0.4406
54,2,6,50.7213,4.9305,Town9,env9,3,?,0.4316
55,2,7,55.6984,2.8249,Town3,env3,1,?,1.4912
56,2,7,55.6984,2.8249,Town3,env3,2,?,0.5956
57,2,7,55.6984,2.8249,Town3,env3,3,?,0.7364
58,2,8,58.5696,3.1697,Town1,env1,1,?,1.9603
59,2,8,58.5696,3.1697,Town1,env1,2,?,0.7114
60,2,8,58.5696,3.1697,Town1,env1,3,?,0.4963
61,2,9,61.7855,4.3134,Town6,env6,1,?,2.4009
62,2,9,61.7855,4.3134,Town6,env6,2,?,0.9195
63,2,9,61.7855,4.3134,Town6,env6,3,?,0.9911
64,2,10,66.1459,3.1375,Town5,env5,1,?,1.6406
65,2,10,66.1459,3.1375,Town5,env5,2,?,0.6624
66,2,10,66.1459,3.1375,Town5,env5,3,?,0.8325
67,2,11,69.3302,7.7692,Town12,env12,1,?,1.3043
68,2,11,69.3302,7.7692,Town12,env12,2,stapler,4.1827
69,2,11,69.3302,7.7692,Town12,env12,3,zoey,2.2804
70,2,12,77.1458,3.6326,Town7,env7,1,?,2.6397
71,2,12,77.1458,3.6326,Town7,env7,2,?,0.4640
72,2,12,77.1458,3.6326,Town7,env7,3,?,0.5272
73,3,1,1.0018,30.6501,Town9,env9,1,paul,20.4159
74,3,1,1.0018,30.6501,Town9,env9,2,?,9.7905
75,3,1,1.0018,30.6501,Town9,env9,3,?,0.4397
76,3,2,31.6941,13.6328,Town12,env12,1,stapler,3.4274
77,3,2,31.6941,13.6328,Town12,env12,2,zoey,1.9039
78,3,2,31.6941,13.6328,Town12,env12,3,?,8.2998
79,3,3,45.3695,7.4996,Town6,env6,1,?,6.6072
80,3,3,45.3695,7.4996,Town6,env6,2,?,0.4228
81,3,3,45.3695,7.4996,Town6,env6,3,?,0.4679
82,3,4,52.9114,7.9805,Town4,env4,1,?,7.0834
83,3,4,52.9114,7.9805,Town4,env4,2,?,0.3831
84,3,4,52.9114,7.9805,Town4,env4,3,?,0.5121
85,3,5,60.9335,17.5505,Town1,env1,1,george,11.1359
86,3,5,60.9335,17.5505,Town1,env1,2,zebra,3.8218
87,3,5,60.9335,17.5505,Town1,env1,3,?,2.5910
88,3,6,78.5272,16.8515,Town3,env3,1,emma,12.1298
89,3,6,78.5272,16.8515,Town3,env3,2,screwdriver,4.0810
90,3,6,78.5272,16.8515,Town3,env3,3,?,0.6389
91,3,7,95.4207,16.9268,Town10,env10,1,katy,15.8709
92,3,7,95.4207,16.9268,Town10,env10,2,?,0.6864
93,3,7,95.4207,16.9268,Town10,env10,3,?,0.3677
94,3,8,112.3900,7.3578,Town2,env2,1,?,0.3982
95,3,8,112.3900,7.3578,Town2,env2,2,mark,3.2226
96,3,8,112.3900,7.3578,Town2,env2,3,cucumber,3.7353
97,3,9,119.7904,15.8862,Town8,env8,1,puppy,11.3172
98,3,9,119.7904,15.8862,Town8,env8,2,beyonce,2.1745
99,3,9,119.7904,15.8862,Town8,env8,3,oranges,2.3928
100,3,10,135.7206,5.9027,Town5,env5,1,?,5.0627
101,3,10,135.7206,5.9027,Town5,env5,2,?,0.4064
102,3,10,135.7206,5.9027,Town5,env5,3,?,0.4320
103,3,11,141.6659,14.5526,Town7,env7,1,sheldon,6.0769
104,3,11,141.6659,14.5526,Town7,env7,2,giraffe,6.3139
105,3,11,141.6659,14.5526,Town7,env7,3,drill,2.1601
106,3,12,156.2607,4.4785,Town11,env11,1,?,3.6054
107,3,12,156.2607,4.4785,Town11,env11,2,?,0.4311
108,3,12,156.2607,4.4785,Town11,env11,3,?,0.4402
109,4,1,1.0014,27.3767,Town2,env2,1,mark,18.8946
110,4,1,1.0014,27.3767,Town2,env2,2,cucumber,4.4551
111,4,1,1.0014,27.3767,Town2,env2,3,scissos,4.0231
112,4,2,28.4247,16.6529,Town1,env1,1,george,6.3293
113,4,2,28.4247,16.6529,Town1,env1,2,giraffe,3.9432
114,4,2,28.4247,16.6529,Town1,env1,3,lettuce,6.3786
115,4,3,45.1223,10.7235,Town8,env8,1,beyonce,5.2184
116,4,3,45.1223,10.7235,Town8,env8,2,puppy,2.5917
117,4,3,45.1223,10.7235,Town8,env8,3,oranges,2.9117
118,4,4,55.8906,36.0044,Town11,env11,1,johnny depp,30.7469
119,4,4,55.8906,36.0044,Town11,env11,2,carrot,3.7841
120,4,4,55.8906,36.0044,Town11,env11,3,hammer,1.4716
121,4,5,91.9409,15.4568,Town9,env9,1,paul,4.2404
122,4,5,91.9409,15.4568,Town9,env9,2,banana,4.3273
123,4,5,91.9409,15.4568,Town9,env9,3,wrench,6.8874
124,4,6,107.4461,14.8406,Town10,env10,1,katy,2.9592
125,4,6,107.4461,14.8406,Town10,env10,2,pigeon,7.0283
126,4,6,107.4461,14.8406,Town10,env10,3,?,4.8515
127,4,7,122.3327,24.9833,Town6,env6,1,natalie,14.6360
128,4,7,122.3327,24.9833,Town6,env6,2,alligator,2.6958
129,4,7,122.3327,24.9833,Town6,env6,3,?,7.6498
130,4,8,147.3625,7.0178,Town12,env12,1,stapler,4.7861
131,4,8,147.3625,7.0178,Town12,env12,2,zoey,0.9267
132,4,8,147.3625,7.0178,Town12,env12,3,apple,1.3033
133,4,9,154.4274,17.3754,Town4,env4,1,?,14.7828
134,4,9,154.4274,17.3754,Town4,env4,2,?,0.4156
135,4,9,154.4274,17.3754,Town4,env4,3,?,2.1754
136,4,10,171.8500,6.7481,Town5,env5,1,?,5.7000
137,4,10,171.8500,6.7481,Town5,env5,2,?,0.5589
138,4,10,171.8500,6.7481,Town5,env5,3,?,0.4875
139,4,11,178.6430,10.8990,Town7,env7,1,sheldon,3.3461
140,4,11,178.6430,10.8990,Town7,env7,2,giraffe,4.9684
141,4,11,178.6430,10.8990,Town7,env7,3,drill,2.5829
142,4,12,189.5870,9.5007,Town3,env3,1,emma,2.9066
143,4,12,189.5870,9.5007,Town3,env3,2,bear,3.5605
144,4,12,189.5870,9.5007,Town3,env3,3,screwdriver,3.0318
145,5,1,1.0026,19.4010,Town2,env2,1,mark,11.6793
146,5,1,1.0026,19.4010,Town2,env2,2,cucumber,5.9747
147,5,1,1.0026,19.4010,Town2,env2,3,scissors,1.7431
148,5,2,20.4545,12.7712,Town9,env9,1,paul,5.4996
149,5,2,20.4545,12.7712,Town9,env9,2,banana,4.1654
150,5,2,20.4545,12.7712,Town9,env9,3,wrench,3.1043
151,5,3,33.2767,25.6562,Town6,env6,1,taylor,14.3956
152,5,3,33.2767,25.6562,Town6,env6,2,measuring tape,6.0302
153,5,3,33.2767,25.6562,Town6,env6,3,cow,5.2285
154,5,4,58.9822,30.4302,Town11,env11,1,johnny,13.7471
155,5,4,58.9822,30.4302,Town11,env11,2,hammer,6.1593
156,5,4,58.9822,30.4302,Town11,env11,3,carrot,10.5221
157,5,5,89.4615,14.5759,Town1,env1,1,george,5.6301
158,5,5,89.4615,14.5759,Town1,env1,2,zebra,4.3034
159,5,5,89.4615,14.5759,Town1,env1,3,lettuce,4.6406
160,5,6,104.0871,7.3016,Town12,env12,1,apple,3.9085
161,5,6,104.0871,7.3016,Town12,env12,2,zoey,1.2481
162,5,6,104.0871,7.3016,Town12,env12,3,stapler,2.1431
163,5,7,111.4380,7.9220,Town4,env4,1,?,6.9608
164,5,7,111.4380,7.9220,Town4,env4,2,?,0.5196
165,5,7,111.4380,7.9220,Town4,env4,3,?,0.4397
166,5,8,119.4117,10.7001,Town3,env3,1,emma,4.1081
167,5,8,119.4117,10.7001,Town3,env3,2,screwdriver,5.3586
168,5,8,119.4117,10.7001,Town3,env3,3,bear,1.2317
169,5,9,130.1659,5.7148,Town5,env5,1,?,4.3927
170,5,9,130.1659,5.7148,Town5,env5,2,?,0.6402
171,5,9,130.1659,5.7148,Town5,env5,3,?,0.6800
172,5,10,135.9304,11.6861,Town7,env7,1,jim,4.6684
173,5,10,135.9304,11.6861,Town7,env7,2,giraffe,3.7195
174,5,10,135.9304,11.6861,Town7,env7,3,drill,3.2964
175,5,11,147.6655,14.8112,Town10,env10,1,katy,7.4536
176,5,11,147.6655,14.8112,Town10,env10,2,pigeon,1.7764
177,5,11,147.6655,14.8112,Town10,env10,3,?,5.5793
178,5,12,162.5277,8.4205,Town8,env8,1,beyonce,3.7970
179,5,12,162.5277,8.4205,Town8,env8,2,puppy,2.9831
180,5,12,162.5277,8.4205,Town8,env8,3,oranges,1.6385
