index,run,trial,onset,duration,cond,rep,resp,acc,respRT,ISIresp,ISIacc,ISIrespRT
1,1,1,12.0038,1.5967,face,0,NR,0,999.0000,NR,0,999.0000
2,1,2,13.6022,1.5984,face,0,0,1,0.5281,NR,0,999.0000
3,1,3,15.2008,1.6001,face,0,0,1,0.4551,NR,0,999.0000
4,1,4,16.8011,1.6003,face,0,0,1,0.4288,NR,0,999.0000
5,1,5,18.4016,1.5995,face,1,1,1,0.4115,NR,0,999.0000
6,1,6,20.0013,1.6001,face,0,0,1,0.4409,NR,0,999.0000
7,1,7,21.6016,1.5988,face,0,1,0,0.4527,NR,0,999.0000
8,1,8,23.2006,1.6003,face,1,NR,0,999.0000,1,1,0.0849
9,1,9,24.8011,1.5997,face,0,0,1,0.4895,NR,0,999.0000
10,1,10,26.4009,1.5993,face,1,1,1,0.5315,NR,0,999.0000
11,1,11,28.0161,9.9857,rest,0,NR,1,999.0000,NR,1,0.0000
12,1,12,38.0020,1.5984,tool,0,0,1,0.5262,NR,0,999.0000
13,1,13,39.6005,1.6003,tool,0,0,1,0.5010,NR,0,999.0000
14,1,14,41.2010,1.5994,tool,1,NR,0,999.0000,1,1,0.0893
15,1,15,42.8006,1.6000,tool,0,0,1,0.5394,NR,0,999.0000
16,1,16,44.4009,1.5993,tool,1,0,0,0.4549,1,1,0.1709
17,1,17,46.0004,1.6008,tool,0,NR,0,999.0000,0,1,0.0306
18,1,18,47.6014,1.5998,tool,0,NR,0,999.0000,0,1,0.0890
19,1,19,49.2014,1.5994,tool,0,0,1,0.5652,NR,0,999.0000
20,1,20,50.8010,1.5993,tool,0,0,1,0.5223,NR,0,999.0000
21,1,21,52.4005,1.6001,tool,1,1,1,0.4711,NR,0,999.0000
22,1,22,54.0166,9.9842,rest,0,NR,1,999.0000,NR,1,0.0000
23,1,23,64.0010,1.6001,face,0,NR,0,999.0000,0,1,0.2249
24,1,24,65.6013,1.5993,face,0,NR,0,999.0000,0,1,0.0148
25,1,25,67.2008,1.5997,face,1,1,1,0.5733,NR,0,999.0000
26,1,26,68.8007,1.6007,face,0,0,1,0.5290,NR,0,999.0000
27,1,27,70.4016,1.5996,face,0,0,1,0.5409,NR,0,999.0000
28,1,28,72.0014,1.5999,face,0,0,1,0.5282,NR,0,999.0000
29,1,29,73.6015,1.5988,face,1,1,1,0.5326,NR,0,999.0000
30,1,30,75.2005,1.6001,face,0,0,1,0.4676,NR,0,999.0000
31,1,31,76.8008,1.6002,face,0,0,1,0.4699,NR,0,999.0000
32,1,32,78.4012,1.5998,face,1,1,1,0.4366,NR,0,999.0000
33,1,33,80.0171,9.9833,rest,0,NR,1,999.0000,NR,1,0.0000
34,1,34,90.0007,1.6007,virtualtown,0,NR,0,999.0000,0,1,0.1871
35,1,35,91.6016,1.5988,virtualtown,0,NR,0,999.0000,0,1,0.2362
36,1,36,93.2006,1.6007,virtualtown,1,1,1,0.4507,NR,0,999.0000
37,1,37,94.8015,1.5989,virtualtown,0,0,1,0.4978,NR,0,999.0000
38,1,38,96.4006,1.6001,virtualtown,0,0,1,0.5239,NR,0,999.0000
39,1,39,98.0009,1.6005,virtualtown,1,NR,0,999.0000,1,1,0.0280
40,1,40,99.6016,1.5986,virtualtown,0,NR,0,999.0000,NR,0,999.0000
41,1,41,101.2004,1.6009,virtualtown,0,NR,0,999.0000,0,1,0.1440
42,1,42,102.8016,1.5992,virtualtown,1,1,1,0.3989,NR,0,999.0000
43,1,43,104.4010,1.5995,virtualtown,0,0,1,0.5037,NR,0,999.0000
44,1,44,106.0177,9.9828,rest,0,NR,1,999.0000,NR,1,0.0000
45,1,45,116.0008,1.5999,face,0,0,1,0.5292,NR,0,999.0000
46,1,46,117.6008,1.6001,face,0,0,1,0.4238,NR,0,999.0000
47,1,47,119.2011,1.5993,face,1,NR,0,999.0000,1,1,0.0996
48,1,48,120.8006,1.5997,face,0,0,1,0.5797,NR,0,999.0000
49,1,49,122.4004,1.6008,face,1,1,1,0.4290,NR,0,999.0000
50,1,50,124.0014,1.5988,face,0,0,1,0.4784,NR,0,999.0000
51,1,51,125.6004,1.6004,face,0,0,1,0.4924,NR,0,999.0000
52,1,52,127.2010,1.6000,face,1,NR,0,999.0000,1,1,0.0033
53,1,53,128.8013,1.5999,face,0,NR,0,999.0000,0,1,0.0712
54,1,54,130.4014,1.5987,face,0,0,1,0.5143,NR,0,999.0000
55,1,55,132.0183,9.9826,rest,0,NR,1,999.0000,NR,1,0.0000
56,1,56,142.0011,1.5990,animal,0,0,1,0.5163,NR,0,999.0000
57,1,57,143.6003,1.5998,animal,0,0,1,0.5343,NR,0,999.0000
58,1,58,145.2003,1.5999,animal,1,1,1,0.5221,NR,0,999.0000
59,1,59,146.8004,1.5999,animal,0,0,1,0.3833,NR,0,999.0000
60,1,60,148.4006,1.5998,animal,1,1,1,0.5397,NR,0,999.0000
61,1,61,150.0005,1.6007,animal,0,0,1,0.4334,NR,0,999.0000
62,1,62,151.6014,1.5994,animal,1,1,1,0.5294,NR,0,999.0000
63,1,63,153.2010,1.5994,animal,0,0,1,0.5546,NR,0,999.0000
64,1,64,154.8006,1.6005,animal,0,0,1,0.4498,NR,0,999.0000
65,1,65,156.4013,1.5991,animal,0,0,1,0.4848,NR,0,999.0000
66,1,66,158.0189,9.9819,rest,0,NR,1,999.0000,NR,1,0.0000
67,1,67,168.0010,1.5998,fruitveg,0,NR,0,999.0000,0,1,0.1042
68,1,68,169.6011,1.6000,fruitveg,0,0,1,0.4283,NR,0,999.0000
69,1,69,171.2012,1.5993,fruitveg,0,0,1,0.5010,NR,0,999.0000
70,1,70,172.8007,1.6005,fruitveg,1,NR,0,999.0000,NR,0,999.0000
71,1,71,174.4014,1.5993,fruitveg,0,0,1,0.4650,NR,0,999.0000
72,1,72,176.0009,1.5995,fruitveg,0,0,1,0.5525,NR,0,999.0000
73,1,73,177.6006,1.6000,fruitveg,1,1,1,0.5495,NR,0,999.0000
74,1,74,179.2008,1.5997,fruitveg,0,0,1,0.4911,NR,0,999.0000
75,1,75,180.8007,1.5998,fruitveg,0,0,1,0.5341,NR,0,999.0000
76,1,76,182.4007,1.5995,fruitveg,1,NR,0,999.0000,1,1,0.0035
77,1,77,184.0195,9.9816,rest,0,NR,1,999.0000,NR,1,0.0000
78,1,78,194.0014,1.5994,animal,0,NR,0,999.0000,0,1,0.0055
79,1,79,195.6010,1.5992,animal,0,NR,0,999.0000,0,1,0.0568
80,1,80,197.2005,1.6002,animal,1,1,1,0.5115,NR,0,999.0000
81,1,81,198.8009,1.6003,animal,0,NR,0,999.0000,0,1,0.0566
82,1,82,200.4014,1.5991,animal,0,0,1,0.5528,NR,0,999.0000
83,1,83,202.0007,1.5993,animal,0,0,1,0.5734,NR,0,999.0000
84,1,84,203.6003,1.6009,animal,1,1,1,0.5235,NR,0,999.0000
85,1,85,205.2014,1.5991,animal,0,0,1,0.3185,NR,0,999.0000
86,1,86,206.8007,1.6004,animal,1,NR,0,999.0000,0,0,0.3080
87,1,87,208.4013,1.5994,animal,0,NR,0,999.0000,0,1,0.4425
88,1,88,210.0032,9.9972,rest,0,NR,1,999.0000,NR,1,0.0000
89,1,89,220.0006,1.5999,fruitveg,0,0,1,0.4868,NR,0,999.0000
90,1,90,221.6008,1.6004,fruitveg,0,0,1,0.5101,NR,0,999.0000
91,1,91,223.2013,1.5995,fruitveg,0,0,1,0.4247,NR,0,999.0000
92,1,92,224.8010,1.5995,fruitveg,0,0,1,0.3229,NR,0,999.0000
93,1,93,226.4006,1.6002,fruitveg,0,0,1,0.4350,NR,0,999.0000
94,1,94,228.0010,1.5997,fruitveg,1,NR,0,999.0000,1,1,0.0411
95,1,95,229.6009,1.6000,fruitveg,0,0,1,0.3801,NR,0,999.0000
96,1,96,231.2011,1.5999,fruitveg,1,0,0,0.3429,1,1,0.1581
97,1,97,232.8012,1.5999,fruitveg,0,0,1,0.4645,NR,0,999.0000
98,1,98,234.4013,1.5991,fruitveg,1,1,1,0.5504,NR,0,999.0000
99,1,99,236.0037,9.9970,rest,0,NR,1,999.0000,NR,1,0.0000
100,1,100,246.0009,1.5992,animal,0,NR,0,999.0000,0,1,0.1279
101,1,101,247.6003,1.6003,animal,0,0,1,0.4861,NR,0,999.0000
102,1,102,249.2008,1.6007,animal,1,1,1,0.5190,NR,0,999.0000
103,1,103,250.8017,1.5984,animal,0,0,1,0.5715,NR,0,999.0000
104,1,104,252.4003,1.6009,animal,0,NR,0,999.0000,0,1,0.0621
105,1,105,254.0014,1.5993,animal,0,0,1,0.5679,NR,0,999.0000
106,1,106,255.6009,1.6001,animal,1,0,0,0.4463,1,1,0.1302
107,1,107,257.2011,1.5996,animal,0,0,1,0.5386,NR,0,999.0000
108,1,108,258.8009,1.5997,animal,1,NR,0,999.0000,1,1,0.1102
109,1,109,260.4009,1.6002,animal,0,0,1,0.5959,NR,0,999.0000
110,1,110,262.0043,9.9958,rest,0,NR,1,999.0000,NR,1,0.0000
111,1,111,272.0004,1.5999,tool,0,NR,0,999.0000,0,1,0.1226
112,1,112,273.6005,1.5996,tool,0,0,1,0.5756,NR,0,999.0000
113,1,113,275.2003,1.6007,tool,1,1,1,0.4388,NR,0,999.0000
114,1,114,276.8012,1.5990,tool,0,0,1,0.3879,NR,0,999.0000
115,1,115,278.4004,1.6010,tool,1,1,1,0.4724,NR,0,999.0000
116,1,116,280.0016,1.5997,tool,0,0,1,0.4358,NR,0,999.0000
117,1,117,281.6015,1.5997,tool,0,0,1,0.5786,NR,0,999.0000
118,1,118,283.2014,1.5991,tool,1,NR,0,999.0000,1,1,0.0752
119,1,119,284.8007,1.5997,tool,0,NR,0,999.0000,0,1,0.0106
120,1,120,286.4007,1.5994,tool,0,NR,0,999.0000,0,1,0.2890
121,1,121,288.0052,9.9954,rest,0,NR,1,999.0000,NR,1,0.0000
122,1,122,298.0007,1.5994,fruitveg,0,NR,0,999.0000,0,1,0.1916
123,1,123,299.6003,1.6009,fruitveg,0,0,1,0.5527,NR,0,999.0000
124,1,124,301.2014,1.5994,fruitveg,0,0,1,0.5428,NR,0,999.0000
125,1,125,302.8010,1.6000,fruitveg,1,1,1,0.5609,NR,0,999.0000
126,1,126,304.4012,1.5992,fruitveg,0,0,1,0.5207,NR,0,999.0000
127,1,127,306.0005,1.6008,fruitveg,1,1,1,0.4882,NR,0,999.0000
128,1,128,307.6016,1.5998,fruitveg,0,NR,0,999.0000,0,1,0.7550
129,1,129,309.2016,1.5992,fruitveg,1,0,0,0.2776,1,1,0.0598
130,1,130,310.8009,1.5997,fruitveg,0,0,1,0.4816,NR,0,999.0000
131,1,131,312.4008,1.6002,fruitveg,0,0,1,0.4755,NR,0,999.0000
132,1,132,314.0058,9.9946,rest,0,NR,1,999.0000,NR,1,0.0000
133,1,133,324.0006,1.6005,tool,0,0,1,0.5729,NR,0,999.0000
134,1,134,325.6013,1.5994,tool,0,0,1,0.4803,NR,0,999.0000
135,1,135,327.2009,1.6003,tool,1,1,1,0.4721,NR,0,999.0000
136,1,136,328.8014,1.5990,tool,0,0,1,0.5094,NR,0,999.0000
137,1,137,330.4007,1.5997,tool,1,1,1,0.4164,NR,0,999.0000
138,1,138,332.0005,1.6005,tool,0,0,1,0.3950,NR,0,999.0000
139,1,139,333.6012,1.5999,tool,1,1,1,0.4852,NR,0,999.0000
140,1,140,335.2013,1.5996,tool,0,0,1,0.3840,NR,0,999.0000
141,1,141,336.8011,1.5997,tool,0,0,1,0.5926,NR,0,999.0000
142,1,142,338.4010,1.5992,tool,0,0,1,0.4834,NR,0,999.0000
143,1,143,340.0065,9.9949,rest,0,NR,1,999.0000,NR,1,0.0000
144,1,144,350.0015,1.5987,animal,0,NR,0,999.0000,NR,0,999.0000
145,1,145,351.6004,1.6000,animal,0,NR,0,999.0000,0,1,0.8932
146,1,146,353.2005,1.6009,animal,1,0,0,0.4712,1,1,0.1119
147,1,147,354.8016,1.5992,animal,0,0,1,0.4685,NR,0,999.0000
148,1,148,356.4010,1.6002,animal,1,1,1,0.4706,NR,0,999.0000
149,1,149,358.0014,1.5989,animal,0,0,1,0.4953,NR,0,999.0000
150,1,150,359.6004,1.6007,animal,1,1,1,0.5446,NR,0,999.0000
151,1,151,361.2013,1.5998,animal,0,NR,0,999.0000,NR,0,999.0000
152,1,152,362.8013,1.5989,animal,0,NR,0,999.0000,0,1,0.0634
153,1,153,364.4004,1.6000,animal,0,NR,0,999.0000,0,1,0.2345
154,1,154,366.0070,9.9931,rest,0,NR,1,999.0000,NR,1,0.0000
155,1,155,376.0003,1.6010,virtualtown,0,NR,0,999.0000,0,1,0.0490
156,1,156,377.6015,1.5987,virtualtown,0,0,1,0.5010,NR,0,999.0000
157,1,157,379.2003,1.6007,virtualtown,0,0,1,0.5248,NR,0,999.0000
158,1,158,380.8012,1.5998,virtualtown,1,1,1,0.5662,NR,0,999.0000
159,1,159,382.4012,1.5990,virtualtown,0,NR,0,999.0000,0,1,0.0651
160,1,160,384.0005,1.5998,virtualtown,1,1,1,0.5844,NR,0,999.0000
161,1,161,385.6005,1.6005,virtualtown,0,NR,0,999.0000,NR,0,999.0000
162,1,162,387.2011,1.5991,virtualtown,0,0,1,0.5868,NR,0,999.0000
163,1,163,388.8005,1.6001,virtualtown,0,NR,0,999.0000,0,1,0.2271
164,1,164,390.4008,1.6005,virtualtown,1,1,1,0.3179,NR,0,999.0000
165,1,165,392.0076,9.9929,rest,0,NR,1,999.0000,NR,1,0.0000
166,1,166,402.0008,1.6001,face,0,NR,0,999.0000,0,1,0.1713
167,1,167,403.6011,1.5993,face,0,0,1,0.4727,NR,0,999.0000
168,1,168,405.2005,1.5996,face,1,NR,0,999.0000,1,1,0.0105
169,1,169,406.8004,1.6009,face,0,0,1,0.4494,NR,0,999.0000
170,1,170,408.4015,1.5990,face,1,1,1,0.5151,NR,0,999.0000
171,1,171,410.0007,1.6000,face,0,0,1,0.5777,NR,0,999.0000
172,1,172,411.6010,1.6000,face,0,NR,0,999.0000,0,1,0.1591
173,1,173,413.2012,1.5998,face,1,1,1,0.5797,NR,0,999.0000
174,1,174,414.8012,1.5992,face,0,0,1,0.5865,NR,0,999.0000
175,1,175,416.4007,1.6003,face,0,0,1,0.2928,NR,0,999.0000
176,1,176,418.0083,9.9924,rest,0,1,1,6.2511,NR,1,0.0000
177,1,177,428.0009,1.5996,fruitveg,0,NR,0,999.0000,0,1,0.0908
178,1,178,429.6007,1.5997,fruitveg,0,NR,0,999.0000,0,1,0.1013
179,1,179,431.2007,1.5995,fruitveg,1,1,1,0.5521,NR,0,999.0000
180,1,180,432.8004,1.6008,fruitveg,0,0,1,0.4217,NR,0,999.0000
181,1,181,434.4014,1.5993,fruitveg,1,1,1,0.3853,NR,0,999.0000
182,1,182,436.0009,1.5993,fruitveg,0,0,1,0.4789,NR,0,999.0000
183,1,183,437.6005,1.6005,fruitveg,0,0,1,0.4749,NR,0,999.0000
184,1,184,439.2012,1.5992,fruitveg,0,0,1,0.5856,NR,0,999.0000
185,1,185,440.8006,1.5994,fruitveg,1,NR,0,999.0000,NR,0,999.0000
186,1,186,442.4002,1.6012,fruitveg,0,NR,0,999.0000,0,1,0.2819
187,1,187,444.0089,9.9928,rest,0,NR,1,999.0000,NR,1,0.0000
188,1,188,454.0020,1.5984,virtualtown,0,NR,0,999.0000,0,1,0.3193
189,1,189,455.6007,1.5998,virtualtown,0,0,1,0.5465,NR,0,999.0000
190,1,190,457.2007,1.5999,virtualtown,0,0,1,0.5836,NR,0,999.0000
191,1,191,458.8008,1.6003,virtualtown,1,0,0,0.3532,NR,0,999.0000
192,1,192,460.4013,1.5999,virtualtown,0,0,1,0.4540,NR,0,999.0000
193,1,193,462.0014,1.5988,virtualtown,1,0,0,0.1580,NR,0,999.0000
194,1,194,463.6003,1.6011,virtualtown,0,0,1,0.3533,NR,0,999.0000
195,1,195,465.2016,1.5994,virtualtown,0,NR,0,999.0000,0,1,0.3239
196,1,196,466.8012,1.5991,virtualtown,1,1,1,0.5862,NR,0,999.0000
197,1,197,468.4005,1.6008,virtualtown,0,NR,0,999.0000,0,1,0.0388
198,1,198,470.0096,9.9913,rest,0,0,1,0.8613,NR,1,0.0000
199,1,199,480.0011,1.5996,tool,0,0,1,0.5265,NR,0,999.0000
200,1,200,481.6009,1.6001,tool,0,0,1,0.4207,NR,0,999.0000
201,1,201,483.2011,1.5996,tool,0,0,1,0.4668,NR,0,999.0000
202,1,202,484.8009,1.5999,tool,1,1,1,0.4741,NR,0,999.0000
203,1,203,486.4010,1.6001,tool,0,0,1,0.4074,NR,0,999.0000
204,1,204,488.0013,1.5997,tool,0,0,1,0.5477,NR,0,999.0000
205,1,205,489.6012,1.6000,tool,1,NR,0,999.0000,1,1,0.0180
206,1,206,491.2014,1.5987,tool,0,0,1,0.5098,NR,0,999.0000
207,1,207,492.8003,1.6010,tool,0,0,1,0.4216,NR,0,999.0000
208,1,208,494.4015,1.5998,tool,1,0,0,0.5251,NR,0,999.0000
209,1,209,496.0101,9.9908,rest,0,1,1,1.1727,NR,1,0.0000
210,1,210,506.0011,1.5997,virtualtown,0,NR,0,999.0000,0,1,0.0813
211,1,211,507.6010,1.5995,virtualtown,0,0,1,0.4968,NR,0,999.0000
212,1,212,509.2007,1.5999,virtualtown,1,NR,0,999.0000,1,1,0.0094
213,1,213,510.8008,1.5999,virtualtown,0,0,1,0.5679,NR,0,999.0000
214,1,214,512.4009,1.6001,virtualtown,0,NR,0,999.0000,0,1,0.0403
215,1,215,514.0012,1.5997,virtualtown,1,0,0,0.5244,NR,0,999.0000
216,1,216,515.6012,1.5992,virtualtown,0,NR,0,999.0000,0,1,0.0827
217,1,217,517.2006,1.5995,virtualtown,0,0,1,0.5870,NR,0,999.0000
218,1,218,518.8003,1.6008,virtualtown,1,NR,0,999.0000,1,1,0.1811
219,1,219,520.4013,1.5994,virtualtown,0,0,1,0.4856,NR,0,999.0000
220,1,220,522.0107,9.9907,rest,0,NR,1,999.0000,NR,1,0.0000
221,2,1,12.0033,1.5981,virtualtown,0,0,1,0.5680,NR,0,999.0000
222,2,2,13.6017,1.5996,virtualtown,0,0,1,0.3874,NR,0,999.0000
223,2,3,15.2015,1.5987,virtualtown,1,NR,0,999.0000,1,1,0.0173
224,2,4,16.8004,1.6007,virtualtown,0,0,1,0.4238,NR,0,999.0000
225,2,5,18.4013,1.5998,virtualtown,1,1,1,0.5208,NR,0,999.0000
226,2,6,20.0013,1.5996,virtualtown,0,NR,0,999.0000,1,0,0.0956
227,2,7,21.6011,1.5995,virtualtown,0,NR,0,999.0000,0,1,0.1650
228,2,8,23.2008,1.5995,virtualtown,0,0,1,0.5338,NR,0,999.0000
229,2,9,24.8005,1.5997,virtualtown,0,NR,0,999.0000,0,1,0.1956
230,2,10,26.4004,1.6003,virtualtown,1,1,1,0.5744,NR,0,999.0000
231,2,11,28.0200,9.9802,rest,0,NR,1,999.0000,NR,1,0.0000
232,2,12,38.0005,1.5999,animal,0,NR,0,999.0000,0,1,0.1201
233,2,13,39.6005,1.6007,animal,0,0,1,0.5551,NR,0,999.0000
234,2,14,41.2014,1.5997,animal,1,0,0,0.3837,1,1,0.4851
235,2,15,42.8014,1.5988,animal,0,0,1,0.4623,NR,0,999.0000
236,2,16,44.4003,1.5999,animal,0,NR,0,999.0000,0,1,0.3060
237,2,17,46.0005,1.6007,animal,1,0,0,0.3614,1,1,0.0617
238,2,18,47.6014,1.5993,animal,0,NR,0,999.0000,NR,0,999.0000
239,2,19,49.2009,1.6002,animal,1,1,1,0.3567,NR,0,999.0000
240,2,20,50.8013,1.6002,animal,0,0,1,0.3857,NR,0,999.0000
241,2,21,52.4017,1.5990,animal,0,NR,0,999.0000,0,1,0.0092
242,2,22,54.0036,9.9975,rest,0,NR,1,999.0000,NR,1,0.0000
243,2,23,64.0014,1.5995,tool,0,NR,0,999.0000,0,1,0.1765
244,2,24,65.6011,1.6001,tool,0,0,1,0.4940,NR,0,999.0000
245,2,25,67.2014,1.5998,tool,0,0,1,0.4935,NR,0,999.0000
246,2,26,68.8014,1.5996,tool,1,1,1,0.5164,NR,0,999.0000
247,2,27,70.4012,1.5995,tool,0,0,1,0.3893,NR,0,999.0000
248,2,28,72.0009,1.6003,tool,0,0,1,0.5213,NR,0,999.0000
249,2,29,73.6014,1.5987,tool,0,0,1,0.4788,NR,0,999.0000
250,2,30,75.2003,1.6004,tool,1,1,1,0.5594,NR,0,999.0000
251,2,31,76.8009,1.5999,tool,0,NR,0,999.0000,0,1,0.1703
252,2,32,78.4010,1.5999,tool,1,1,1,0.5138,NR,0,999.0000
253,2,33,80.0043,9.9960,rest,0,NR,1,999.0000,NR,1,0.0000
254,2,34,90.0004,1.6006,face,0,NR,0,999.0000,0,1,0.0768
255,2,35,91.6012,1.5989,face,0,0,1,0.5831,NR,0,999.0000
256,2,36,93.2003,1.6009,face,0,0,1,0.5405,NR,0,999.0000
257,2,37,94.8014,1.5997,face,1,1,1,0.3554,NR,0,999.0000
258,2,38,96.4013,1.5988,face,0,0,1,0.2618,NR,0,999.0000
259,2,39,98.0003,1.6010,face,0,0,1,0.3664,NR,0,999.0000
260,2,40,99.6015,1.5997,face,0,NR,0,999.0000,0,1,0.0773
261,2,41,101.2013,1.5995,face,1,1,1,0.3513,NR,0,999.0000
262,2,42,102.8010,1.6002,face,0,0,1,0.4104,NR,0,999.0000
263,2,43,104.4015,1.5990,face,1,1,1,0.5068,NR,0,999.0000
264,2,44,106.0052,9.9951,rest,0,NR,1,999.0000,NR,1,0.0000
265,2,45,116.0005,1.6009,tool,0,0,1,0.4035,NR,0,999.0000
266,2,46,117.6016,1.5996,tool,0,0,1,0.4381,NR,0,999.0000
267,2,47,119.2014,1.5997,tool,0,0,1,0.4057,NR,0,999.0000
268,2,48,120.8013,1.5994,tool,1,1,1,0.5148,NR,0,999.0000
269,2,49,122.4009,1.5997,tool,0,NR,0,999.0000,0,1,0.0495
270,2,50,124.0008,1.5996,tool,0,0,1,0.5828,NR,0,999.0000
271,2,51,125.6006,1.5999,tool,1,0,0,0.4966,1,1,0.2289
272,2,52,127.2007,1.5994,tool,0,0,1,0.5019,NR,0,999.0000
273,2,53,128.8003,1.6008,tool,0,0,1,0.4595,NR,0,999.0000
274,2,54,130.4013,1.5992,tool,1,0,0,0.3667,1,1,0.1861
275,2,55,132.0058,9.9951,rest,0,NR,1,999.0000,NR,1,0.0000
276,2,56,142.0011,1.5991,tool,0,0,1,0.5237,NR,0,999.0000
277,2,57,143.6003,1.6010,tool,0,0,1,0.5565,NR,0,999.0000
278,2,58,145.2016,1.5994,tool,1,1,1,0.5654,NR,0,999.0000
279,2,59,146.8011,1.5995,tool,0,0,1,0.4449,NR,0,999.0000
280,2,60,148.4009,1.5999,tool,1,1,1,0.4843,NR,0,999.0000
281,2,61,150.0010,1.5999,tool,0,NR,0,999.0000,0,1,0.2451
282,2,62,151.6011,1.5995,tool,0,0,1,0.5444,NR,0,999.0000
283,2,63,153.2008,1.5999,tool,0,0,1,0.4402,NR,0,999.0000
284,2,64,154.8010,1.6000,tool,1,0,0,0.2895,1,1,0.0220
285,2,65,156.4011,1.5999,tool,0,NR,0,999.0000,0,1,0.1629
286,2,66,158.0063,9.9938,rest,0,NR,1,999.0000,NR,1,0.0000
287,2,67,168.0004,1.6003,fruitveg,0,0,1,0.5347,NR,0,999.0000
288,2,68,169.6009,1.6001,fruitveg,0,0,1,0.3938,NR,0,999.0000
289,2,69,171.2012,1.5992,fruitveg,0,NR,0,999.0000,0,1,0.0106
290,2,70,172.8006,1.6008,fruitveg,1,NR,0,999.0000,1,1,0.0970
291,2,71,174.4016,1.5992,fruitveg,0,NR,0,999.0000,0,1,0.0089
292,2,72,176.0010,1.5998,fruitveg,0,NR,0,999.0000,NR,0,999.0000
293,2,73,177.6010,1.5997,fruitveg,1,NR,0,999.0000,NR,0,999.0000
294,2,74,179.2008,1.5996,fruitveg,0,NR,0,999.0000,NR,0,999.0000
295,2,75,180.8006,1.6006,fruitveg,1,NR,0,999.0000,NR,0,999.0000
296,2,76,182.4014,1.5996,fruitveg,0,NR,0,999.0000,NR,0,999.0000
297,2,77,184.0071,9.9938,rest,0,NR,1,999.0000,NR,1,0.0000
298,2,78,194.0010,1.5998,tool,0,0,1,0.4542,NR,0,999.0000
299,2,79,195.6011,1.5996,tool,0,0,1,0.5328,NR,0,999.0000
300,2,80,197.2008,1.6001,tool,0,0,1,0.5367,NR,0,999.0000
301,2,81,198.8011,1.6002,tool,0,0,1,0.5507,NR,0,999.0000
302,2,82,200.4015,1.5990,tool,1,1,1,0.5102,NR,0,999.0000
303,2,83,202.0007,1.6000,tool,0,0,1,0.5048,NR,0,999.0000
304,2,84,203.6009,1.6000,tool,0,0,1,0.5437,NR,0,999.0000
305,2,85,205.2011,1.5997,tool,1,1,1,0.5819,NR,0,999.0000
306,2,86,206.8010,1.5995,tool,0,0,1,0.4970,NR,0,999.0000
307,2,87,208.4008,1.6004,tool,1,1,1,0.4854,NR,0,999.0000
308,2,88,210.0076,9.9935,rest,0,NR,1,999.0000,NR,1,0.0000
309,2,89,220.0013,1.6000,face,0,NR,0,999.0000,0,1,0.0875
310,2,90,221.6016,1.5986,face,0,0,1,0.5292,NR,0,999.0000
311,2,91,223.2004,1.5998,face,0,0,1,0.4487,NR,0,999.0000
312,2,92,224.8004,1.6007,face,0,0,1,0.4624,NR,0,999.0000
313,2,93,226.4014,1.5993,face,1,1,1,0.5187,NR,0,999.0000
314,2,94,228.0008,1.5996,face,0,0,1,0.4430,NR,0,999.0000
315,2,95,229.6007,1.6004,face,1,1,1,0.5923,NR,0,999.0000
316,2,96,231.2013,1.5999,face,0,0,1,0.4803,NR,0,999.0000
317,2,97,232.8014,1.5999,face,0,0,1,0.5330,NR,0,999.0000
318,2,98,234.4015,1.5992,face,1,NR,0,999.0000,NR,0,999.0000
319,2,99,236.0082,9.9920,rest,0,NR,1,999.0000,NR,1,0.0000
320,2,100,246.0005,1.6008,face,0,0,1,0.5251,NR,0,999.0000
321,2,101,247.6015,1.5994,face,0,0,1,0.2959,NR,0,999.0000
322,2,102,249.2011,1.6000,face,1,0,0,0.5696,NR,0,999.0000
323,2,103,250.8014,1.5989,face,0,0,1,0.4460,NR,0,999.0000
324,2,104,252.4005,1.6003,face,0,0,1,0.5527,NR,0,999.0000
325,2,105,254.0010,1.6004,face,1,1,1,0.4426,NR,0,999.0000
326,2,106,255.6016,1.5986,face,0,0,1,0.4854,NR,0,999.0000
327,2,107,257.2004,1.6005,face,0,0,1,0.5221,NR,0,999.0000
328,2,108,258.8011,1.5992,face,0,0,1,0.5249,NR,0,999.0000
329,2,109,260.4005,1.6008,face,1,1,1,0.4064,NR,0,999.0000
330,2,110,262.0089,9.9918,rest,0,NR,1,999.0000,NR,1,0.0000
331,2,111,272.0010,1.5993,animal,0,0,1,0.5758,NR,0,999.0000
332,2,112,273.6005,1.6003,animal,0,0,1,0.5114,NR,0,999.0000
333,2,113,275.2010,1.5993,animal,1,0,0,0.3961,1,1,0.2370
334,2,114,276.8005,1.6000,animal,0,0,1,0.5554,NR,0,999.0000
335,2,115,278.4008,1.6002,animal,0,0,1,0.4929,NR,0,999.0000
336,2,116,280.0012,1.5998,animal,0,0,1,0.4441,NR,0,999.0000
337,2,117,281.6012,1.5998,animal,0,NR,0,999.0000,0,1,0.0744
338,2,118,283.2012,1.5991,animal,1,NR,0,999.0000,NR,0,999.0000
339,2,119,284.8006,1.6003,animal,0,NR,0,999.0000,0,1,0.2510
340,2,120,286.4011,1.6001,animal,1,NR,0,999.0000,1,1,0.0363
341,2,121,288.0095,9.9908,rest,0,NR,1,999.0000,NR,1,0.0000
342,2,122,298.0005,1.6004,face,0,NR,0,999.0000,0,1,0.0468
343,2,123,299.6011,1.5994,face,0,0,1,0.5651,NR,0,999.0000
344,2,124,301.2008,1.5993,face,0,0,1,0.5157,NR,0,999.0000
345,2,125,302.8003,1.6008,face,0,0,1,0.4527,NR,0,999.0000
346,2,126,304.4013,1.5993,face,1,1,1,0.5767,NR,0,999.0000
347,2,127,306.0008,1.6005,face,0,0,1,0.4991,NR,0,999.0000
348,2,128,307.6015,1.5987,face,1,1,1,0.5508,NR,0,999.0000
349,2,129,309.2004,1.6004,face,0,0,1,0.5234,NR,0,999.0000
350,2,130,310.8011,1.5996,face,0,NR,0,999.0000,NR,0,999.0000
351,2,131,312.4008,1.5992,face,1,1,1,0.5594,NR,0,999.0000
352,2,132,314.0102,9.9908,rest,0,NR,1,999.0000,NR,1,0.0000
353,2,133,324.0013,1.5989,virtualtown,0,NR,0,999.0000,0,1,0.0462
354,2,134,325.6004,1.5997,virtualtown,0,0,1,0.5336,NR,0,999.0000
355,2,135,327.2003,1.6012,virtualtown,0,NR,0,999.0000,0,1,0.0070
356,2,136,328.8017,1.5994,virtualtown,0,0,1,0.4541,NR,0,999.0000
357,2,137,330.4013,1.5997,virtualtown,1,1,1,0.5110,NR,0,999.0000
358,2,138,332.0012,1.5991,virtualtown,0,0,1,0.4789,NR,0,999.0000
359,2,139,333.6005,1.6008,virtualtown,1,1,1,0.5487,NR,0,999.0000
360,2,140,335.2015,1.5996,virtualtown,0,0,1,0.4732,NR,0,999.0000
361,2,141,336.8013,1.5998,virtualtown,1,1,1,0.4998,NR,0,999.0000
362,2,142,338.4014,1.6000,virtualtown,0,0,1,0.5845,NR,0,999.0000
363,2,143,340.0108,9.9913,rest,0,NR,1,999.0000,NR,1,0.0000
364,2,144,350.0023,1.5988,animal,0,NR,0,999.0000,0,1,0.0112
365,2,145,351.6014,1.5989,animal,0,0,1,0.5307,NR,0,999.0000
366,2,146,353.2004,1.6007,animal,0,0,1,0.4833,NR,0,999.0000
367,2,147,354.8014,1.5997,animal,0,0,1,0.4616,NR,0,999.0000
368,2,148,356.4013,1.5993,animal,1,0,0,0.3908,1,1,0.1751
369,2,149,358.0008,1.6003,animal,0,0,1,0.4932,NR,0,999.0000
370,2,150,359.6013,1.5998,animal,1,1,1,0.4728,NR,0,999.0000
371,2,151,361.2013,1.5995,animal,0,0,1,0.5481,NR,0,999.0000
372,2,152,362.8011,1.5999,animal,1,0,0,0.3260,1,1,0.0076
373,2,153,364.4012,1.5997,animal,0,0,1,0.3964,NR,0,999.0000
374,2,154,366.0114,9.9893,rest,0,NR,1,999.0000,NR,1,0.0000
375,2,155,376.0009,1.6004,fruitveg,0,NR,0,999.0000,0,1,0.1086
376,2,156,377.6016,1.5997,fruitveg,0,0,1,0.5815,NR,0,999.0000
377,2,157,379.2015,1.5993,fruitveg,1,1,1,0.3894,NR,0,999.0000
378,2,158,380.8010,1.5992,fruitveg,0,0,1,0.4637,NR,0,999.0000
379,2,159,382.4004,1.6009,fruitveg,1,1,1,0.4226,NR,0,999.0000
380,2,160,384.0016,1.5995,fruitveg,0,0,1,0.3961,NR,0,999.0000
381,2,161,385.6012,1.5989,fruitveg,0,NR,0,999.0000,0,1,0.0543
382,2,162,387.2003,1.6011,fruitveg,0,0,1,0.5880,NR,0,999.0000
383,2,163,388.8016,1.5992,fruitveg,1,1,1,0.4076,NR,0,999.0000
384,2,164,390.4010,1.5999,fruitveg,0,0,1,0.4654,NR,0,999.0000
385,2,165,392.0121,9.9885,rest,0,NR,1,999.0000,NR,1,0.0000
386,2,166,402.0009,1.5992,animal,0,0,1,0.5004,NR,0,999.0000
387,2,167,403.6003,1.6004,animal,0,0,1,0.4635,NR,0,999.0000
388,2,168,405.2009,1.5994,animal,0,0,1,0.4376,NR,0,999.0000
389,2,169,406.8005,1.6003,animal,0,0,1,0.4459,NR,0,999.0000
390,2,170,408.4011,1.6003,animal,1,1,1,0.4398,NR,0,999.0000
391,2,171,410.0015,1.5993,animal,0,0,1,0.3564,NR,0,999.0000
392,2,172,411.6010,1.6000,animal,1,1,1,0.4618,NR,0,999.0000
393,2,173,413.2012,1.5997,animal,0,0,1,0.3789,NR,0,999.0000
394,2,174,414.8011,1.6000,animal,1,NR,0,999.0000,1,1,0.0076
395,2,175,416.4012,1.5996,animal,0,0,1,0.4917,NR,0,999.0000
396,2,176,418.0128,9.9874,rest,0,NR,1,999.0000,NR,1,0.0000
397,2,177,428.0003,1.6008,fruitveg,0,0,1,0.5674,NR,0,999.0000
398,2,178,429.6014,1.5987,fruitveg,0,0,1,0.5286,NR,0,999.0000
399,2,179,431.2003,1.6003,fruitveg,1,1,1,0.3937,NR,0,999.0000
400,2,180,432.8008,1.5998,fruitveg,0,0,1,0.4615,NR,0,999.0000
401,2,181,434.4008,1.5998,fruitveg,1,NR,0,999.0000,1,1,0.1312
402,2,182,436.0008,1.5998,fruitveg,0,NR,0,999.0000,NR,0,999.0000
403,2,183,437.6007,1.5996,fruitveg,1,NR,0,999.0000,1,1,0.0460
404,2,184,439.2006,1.6008,fruitveg,0,0,1,0.4209,1,0,0.2543
405,2,185,440.8016,1.5990,fruitveg,0,0,1,0.5513,NR,0,999.0000
406,2,186,442.4008,1.6005,fruitveg,0,0,1,0.4786,NR,0,999.0000
407,2,187,444.0133,9.9870,rest,0,NR,1,999.0000,NR,1,0.0000
408,2,188,454.0005,1.6008,virtualtown,0,NR,0,999.0000,0,1,0.0371
409,2,189,455.6015,1.5998,virtualtown,0,0,1,0.4627,NR,0,999.0000
410,2,190,457.2015,1.5992,virtualtown,0,0,1,0.4768,NR,0,999.0000
411,2,191,458.8008,1.5993,virtualtown,1,1,1,0.4960,NR,0,999.0000
412,2,192,460.4004,1.5999,virtualtown,0,0,1,0.4146,NR,0,999.0000
413,2,193,462.0005,1.6007,virtualtown,1,1,1,0.5675,NR,0,999.0000
414,2,194,463.6014,1.5995,virtualtown,0,0,1,0.5085,NR,0,999.0000
415,2,195,465.2012,1.5991,virtualtown,1,NR,0,999.0000,NR,0,999.0000
416,2,196,466.8005,1.6000,virtualtown,0,0,1,0.4198,NR,0,999.0000
417,2,197,468.4006,1.6009,virtualtown,0,0,1,0.5704,NR,0,999.0000
418,2,198,470.0141,9.9861,rest,0,NR,1,999.0000,NR,1,0.0000
419,2,199,480.0003,1.6002,virtualtown,0,0,1,0.5462,NR,0,999.0000
420,2,200,481.6007,1.6007,virtualtown,0,0,1,0.4838,NR,0,999.0000
421,2,201,483.2016,1.5996,virtualtown,0,0,1,0.5093,NR,0,999.0000
422,2,202,484.8014,1.5995,virtualtown,1,1,1,0.4693,NR,0,999.0000
423,2,203,486.4011,1.5997,virtualtown,0,0,1,0.4502,NR,0,999.0000
424,2,204,488.0011,1.5993,virtualtown,0,0,1,0.5608,NR,0,999.0000
425,2,205,489.6006,1.5995,virtualtown,0,0,1,0.5282,NR,0,999.0000
426,2,206,491.2003,1.6004,virtualtown,1,NR,0,999.0000,0,0,0.0209
427,2,207,492.8009,1.5996,virtualtown,0,0,1,0.5610,NR,0,999.0000
428,2,208,494.4007,1.5997,virtualtown,1,1,1,0.4626,NR,0,999.0000
429,2,209,496.0146,9.9867,rest,0,NR,1,999.0000,NR,1,0.0000
430,2,210,506.0016,1.5987,fruitveg,0,0,1,0.4961,NR,0,999.0000
431,2,211,507.6004,1.6001,fruitveg,0,NR,0,999.0000,0,1,0.0942
432,2,212,509.2008,1.5994,fruitveg,0,0,1,0.5434,NR,0,999.0000
433,2,213,510.8004,1.6006,fruitveg,1,1,1,0.3591,NR,0,999.0000
434,2,214,512.4012,1.5991,fruitveg,0,NR,0,999.0000,NR,0,999.0000
435,2,215,514.0005,1.6007,fruitveg,0,NR,0,999.0000,0,1,0.2903
436,2,216,515.6014,1.5993,fruitveg,0,0,1,0.5219,NR,0,999.0000
437,2,217,517.2010,1.5994,fruitveg,1,0,0,0.5830,NR,0,999.0000
438,2,218,518.8006,1.6001,fruitveg,0,NR,0,999.0000,0,1,0.0671
439,2,219,520.4009,1.6003,fruitveg,1,1,1,0.5290,NR,0,999.0000
440,2,220,522.0153,9.9856,rest,0,NR,1,999.0000,NR,1,0.0000
